t,alt,ax,ay,az,gx,gy,gz,escPWM,rollDeg,pitchDeg
4691,0.01,-0.0029,0.0083,0.9939,-0.0020,0.0008,-0.0016,1000,0.00,0.00
4744,0.00,0.0103,0.0010,1.0015,-0.0012,-0.0028,-0.0047,1000,0.00,0.00
4796,0.06,0.0012,0.0020,1.0081,0.0016,0.0031,0.0013,1000,0.00,0.00
4847,0.12,-0.0007,0.0010,1.0164,0.0079,0.0036,0.0001,1000,0.00,0.00
4897,0.20,-0.0027,-0.0066,1.0098,0.0023,0.0008,0.0013,1000,0.00,0.00
4948,0.26,0.0010,0.0059,1.0051,0.0013,-0.0011,-0.0043,1000,0.00,0.00
4999,0.33,0.0081,-0.0027,1.0027,0.0011,-0.0019,0.0004,1000,0.00,0.00
5050,0.39,0.0007,0.0000,0.9944,0.0000,-0.0016,-0.0015,1000,0.00,0.00
5100,0.44,-0.0015,0.0037,1.0076,-0.0008,0.0017,-0.0025,1000,0.00,0.00
5151,0.49,-0.0012,0.0046,0.9995,0.0008,-0.0023,0.0013,1000,0.00,0.00
5202,0.53,-0.0015,-0.0042,1.0000,0.0017,0.0005,-0.0017,1000,0.00,0.00
5253,0.56,0.0005,-0.0017,1.0015,0.0007,-0.0015,-0.0004,1000,0.00,0.00
5303,0.59,-0.0029,-0.0051,1.0098,0.0000,0.0008,-0.0004,1000,0.00,0.00
5354,0.64,-0.0015,-0.0022,1.0046,0.0007,0.0003,0.0020,1000,0.00,0.00
5405,0.68,0.0032,0.0015,1.0085,0.0001,-0.0004,0.0005,1000,0.00,0.00
5456,0.73,0.0024,-0.0007,0.9951,0.0009,0.0005,-0.0003,1000,0.00,0.00
5506,0.77,-0.0027,-0.0024,0.9941,0.0032,0.0024,-0.0005,1000,0.00,0.00
5557,0.81,0.0017,-0.0017,0.9937,0.0024,0.0001,-0.0011,1000,0.00,0.00
5608,0.84,-0.0034,-0.0027,1.0076,0.0012,0.0016,-0.0012,1000,0.00,0.00
5659,0.87,-0.0005,-0.0010,1.0002,-0.0007,0.0020,0.0007,1000,0.00,0.00
5709,0.90,0.0000,-0.0010,1.0015,0.0000,-0.0021,-0.0008,1000,0.00,0.00
5761,0.92,-0.0029,-0.0007,1.0005,-0.0007,-0.0009,0.0009,1000,0.00,0.00
5812,0.94,0.0032,-0.0066,1.0059,0.0004,0.0008,0.0008,1000,0.00,0.00
5863,0.97,-0.0005,-0.0020,1.0112,-0.0039,0.0005,0.0005,1000,0.00,0.00
5914,0.99,-0.0015,-0.0005,0.9978,0.0008,-0.0017,-0.0003,1000,0.00,0.00
5965,1.01,-0.0012,0.0034,0.9998,0.0020,0.0003,0.0011,1000,0.00,0.00
6015,1.04,-0.0015,0.0117,1.0022,-0.0009,0.0021,0.0016,1000,0.00,0.00
6066,1.06,-0.0271,-0.1345,1.0457,-0.0049,0.0273,-0.0341,1000,0.00,0.00
6117,1.08,-0.0691,0.0442,0.9763,0.0116,-0.0017,0.0550,1000,0.00,0.00
6168,1.10,-0.0171,0.0364,1.0508,0.0254,0.0129,0.0015,1000,0.00,0.00
6218,1.12,0.0054,-0.0071,0.9570,0.0003,-0.0076,-0.0405,1000,0.00,0.00
6269,1.13,0.0405,-0.0452,1.0430,-0.0009,-0.0053,0.0205,1000,0.00,0.00
6320,1.15,-0.0693,-0.0127,1.0261,0.0135,0.0714,-0.0063,1000,0.00,0.00
6371,1.16,-0.0063,-0.0208,0.9321,0.0157,-0.0099,0.0023,1000,0.00,0.00
6421,1.18,-0.0586,0.0645,0.9121,0.0016,-0.0028,0.0350,1000,0.00,0.00
6472,1.20,0.0183,-0.0154,1.0220,0.0041,-0.0123,-0.0374,1000,0.00,0.00
6523,1.23,0.0720,-0.0271,0.9033,-0.0040,-0.0157,0.0024,1000,0.00,0.00
6574,1.26,-0.1873,-0.0200,1.1589,0.0116,0.0659,0.0453,1000,0.00,0.00
6624,1.27,0.0332,-0.0894,0.9634,0.0117,0.0060,0.0036,1000,0.00,0.00
6675,1.29,0.0066,0.0066,1.0134,0.0071,-0.0203,0.0073,1000,0.00,0.00
6726,1.31,-0.0161,0.0098,1.0208,0.0028,-0.0093,-0.0280,1000,0.00,0.00
6777,1.32,0.0583,-0.0093,0.9927,0.0047,-0.0001,-0.0072,1000,0.00,0.00
6829,1.33,0.0020,0.0037,1.0081,0.0033,0.0080,0.0212,1000,0.00,0.00
6880,1.33,-0.0266,0.0020,0.9902,0.0052,0.0047,0.0031,1000,0.00,0.00
6930,1.34,-0.0046,0.0022,1.0046,0.0021,-0.0011,-0.0079,1000,0.00,0.00
6981,1.35,0.0034,-0.0034,1.0061,0.0000,-0.0041,0.0036,1000,0.00,0.00
7032,1.34,0.0059,0.0081,0.9976,0.0027,-0.0003,0.0047,1000,0.00,0.00
7083,1.35,0.0042,0.0059,1.0037,-0.0016,-0.0011,-0.0008,1000,0.00,0.00
7133,1.35,0.0056,0.0022,1.0024,-0.0012,0.0027,-0.0015,1000,0.00,0.00
7184,1.33,0.0059,0.0010,0.9978,-0.0004,0.0029,0.0024,1000,0.00,0.00
7235,1.33,-0.0071,-0.0066,1.0020,0.0036,-0.0005,-0.0029,1000,0.00,0.00
7286,1.33,-0.0015,-0.0020,0.9963,0.0032,-0.0004,-0.0012,1000,0.00,0.00
7336,1.33,0.0015,0.0046,0.9934,0.0011,0.0011,0.0020,1000,0.00,0.00
7387,1.32,-0.0037,0.0000,0.9983,-0.0049,0.0000,-0.0016,1000,0.00,0.00
7438,1.34,0.0042,0.0039,0.9956,-0.0024,-0.0001,-0.0016,1000,0.00,0.00
7489,1.34,0.0105,-0.0081,1.0024,0.0031,0.0003,0.0019,1000,0.00,0.00
7539,1.34,-0.0024,-0.0007,0.9954,0.0047,-0.0001,0.0008,1000,0.00,0.00
7590,1.34,0.0007,0.0051,0.9939,0.0027,0.0031,0.0029,1000,0.00,0.00
7641,1.35,0.0002,-0.0088,1.0093,0.0000,-0.0003,0.0009,1000,0.00,0.00
7692,1.35,-0.0010,-0.0076,1.0056,-0.0008,-0.0023,0.0011,1000,0.00,0.00
7742,1.35,0.0059,-0.0127,1.0017,0.0016,0.0012,0.0009,1000,0.00,0.00
7794,1.36,-0.0813,-0.0024,1.1882,-0.0112,-0.0590,0.0430,1000,0.00,0.00
7845,1.35,-0.1797,0.0759,1.1367,-0.0208,0.0133,0.0129,1000,0.00,0.00
7896,1.36,0.0044,-0.0112,1.0234,-0.0124,0.0036,-0.0374,1000,0.00,0.00
7947,1.37,0.0442,-0.0095,1.0366,-0.0119,-0.0017,0.0136,1000,0.00,0.00
7998,1.37,-0.0188,0.0146,1.0139,0.0001,-0.0047,0.0133,1000,0.00,0.00
8048,1.37,0.0168,0.0134,0.9766,0.0092,-0.0048,-0.0125,1000,0.00,0.00
8099,1.38,0.0122,0.0210,0.9641,-0.0128,-0.0248,-0.0187,1000,0.00,0.00
8150,1.39,0.0090,-0.0166,0.9897,-0.0011,-0.0029,-0.0211,1000,0.00,0.00
8201,1.38,0.0151,-0.0054,1.0188,0.0040,0.0095,0.0125,1000,0.00,0.00
8251,1.38,-0.0347,0.0098,1.0005,0.0019,0.0067,0.0201,1000,0.00,0.00
8302,1.38,-0.0125,0.0100,1.0054,0.0007,-0.0043,-0.0124,1000,0.00,0.00
8353,1.39,0.0142,-0.0088,1.0066,-0.0028,-0.0059,-0.0115,1000,0.00,0.00
8404,1.39,0.0068,0.0007,0.9924,-0.0032,0.0011,0.0137,1000,0.00,0.00
8454,1.38,-0.0068,0.0042,1.0059,0.0004,0.0025,0.0100,1000,0.00,0.00
8505,1.38,-0.0044,0.0024,0.9958,-0.0023,-0.0019,-0.0083,1000,0.00,0.00
8556,1.38,0.0032,0.0012,0.9980,0.0027,-0.0017,-0.0023,1000,0.00,0.00
8607,1.39,0.0012,0.0017,1.0039,0.0021,0.0007,0.0024,1000,0.00,0.00
8657,1.39,-0.0010,0.0012,0.9993,0.0021,0.0008,0.0021,1000,0.00,0.00
8708,1.40,-0.0032,0.0020,0.9912,0.0043,0.0001,-0.0035,1000,0.00,0.00
8759,1.39,0.0037,-0.0020,1.0110,0.0003,-0.0019,0.0023,1000,0.00,0.00
8810,1.40,0.0032,-0.0039,0.9990,0.0007,-0.0015,0.0013,1000,0.00,0.00
8862,1.40,0.0085,-0.0017,1.0005,0.0016,-0.0011,-0.0017,1000,0.00,0.00
8913,1.40,0.0042,0.0056,1.0024,0.0041,0.0007,-0.0004,1000,0.00,0.00
8963,1.40,-0.0022,0.0042,1.0020,-0.0020,0.0007,0.0013,1000,0.00,0.00
9014,1.40,-0.0042,0.0059,1.0002,-0.0007,-0.0013,-0.0027,1000,0.00,0.00
9065,1.39,-0.0005,0.0005,0.9985,-0.0015,-0.0004,0.0007,1000,0.00,0.00
9116,1.39,0.0017,-0.0081,0.9963,0.0000,-0.0016,0.0017,1000,0.00,0.00
9166,1.39,0.0017,-0.0100,1.0010,0.0005,0.0020,0.0012,1000,0.00,0.00
9217,1.38,0.0042,-0.0012,0.9993,0.0005,-0.0024,0.0024,1000,0.00,0.00
9268,1.38,0.0017,0.0024,0.9922,0.0015,0.0016,0.0009,1000,0.00,0.00
9319,1.38,0.0000,-0.0044,0.9939,-0.0001,-0.0007,-0.0020,1000,0.00,0.00
9369,1.38,-0.0029,0.0039,0.9958,0.0001,-0.0007,-0.0009,1000,0.00,0.00
9420,1.38,0.0024,-0.0017,1.0037,0.0027,0.0013,0.0032,1000,0.00,0.00
9471,1.38,0.0042,-0.0027,1.0056,-0.0008,-0.0007,-0.0011,1000,0.00,0.00
9522,1.39,0.0005,-0.0044,0.9971,-0.0012,-0.0012,0.0016,1000,0.00,0.00
9572,1.39,-0.0010,0.0005,1.0015,0.0035,-0.0009,0.0001,1000,0.00,0.00
9623,1.39,0.0032,-0.0020,0.9976,0.0013,0.0011,-0.0009,1000,0.00,0.00
9674,1.38,0.0007,-0.0015,1.0005,-0.0017,-0.0008,0.0019,1000,0.00,0.00
9725,1.39,-0.0002,0.0059,1.0056,0.0015,-0.0016,0.0017,1000,0.00,0.00
9775,1.38,0.0056,0.0056,1.0034,0.0017,-0.0003,-0.0012,1000,0.00,0.00
9827,1.38,0.0017,0.0002,0.9988,0.0041,-0.0005,-0.0016,1000,0.00,0.00
9878,1.38,-0.0020,0.0095,0.9915,-0.0009,0.0019,0.0035,1000,0.00,0.00
9929,1.39,0.0012,0.0085,1.0063,0.0015,0.0013,-0.0017,1000,0.00,0.00
9980,1.39,0.0007,-0.0007,0.9985,0.0005,0.0011,-0.0011,1000,0.00,0.00
10031,1.39,0.0051,0.0002,1.0037,0.0004,-0.0001,0.0011,1000,0.00,0.00
10081,1.39,0.0032,-0.0042,0.9980,-0.0001,-0.0009,0.0000,1000,0.00,0.00
10132,1.39,-0.0029,-0.0063,1.0046,0.0032,0.0019,0.0001,1000,0.00,0.00
10183,1.39,0.0071,0.0000,0.9998,0.0013,0.0000,-0.0001,1000,0.00,0.00
10234,1.38,-0.0032,0.0037,0.9963,0.0011,0.0019,0.0003,1000,0.00,0.00
10284,1.37,0.0015,0.0020,1.0007,0.0003,0.0005,0.0000,1000,0.00,0.00
10335,1.37,-0.0022,0.0061,0.9995,-0.0012,0.0005,0.0008,1000,0.00,0.00
10386,1.37,0.0015,-0.0034,1.0010,0.0019,-0.0001,0.0029,1000,0.00,0.00
10437,1.37,-0.0044,-0.0024,1.0017,0.0011,0.0016,0.0033,1000,0.00,0.00
10487,1.37,-0.0007,-0.0066,1.0022,-0.0015,0.0016,0.0005,1000,0.00,0.00
10538,1.37,-0.0051,-0.0071,0.9958,0.0013,-0.0009,0.0013,1000,0.00,0.00
10589,1.37,-0.0010,0.0051,0.9961,0.0020,-0.0011,-0.0008,1000,0.00,0.00
10640,1.37,-0.0002,0.0056,1.0029,0.0028,0.0004,0.0005,1000,0.00,0.00
10690,1.37,-0.0049,0.0029,0.9990,0.0017,0.0016,0.0009,1000,0.00,0.00
10741,1.36,-0.0010,0.0020,0.9971,0.0008,-0.0019,0.0012,1000,0.00,0.00
10792,1.36,0.0012,-0.0056,1.0022,0.0012,0.0016,0.0011,1000,0.00,0.00
10844,1.37,-0.0034,0.0051,1.0059,0.0016,0.0016,-0.0004,1000,0.00,0.00
10895,1.38,0.0044,-0.0054,1.0024,0.0024,0.0001,0.0015,1000,0.00,0.00
10946,1.38,-0.0010,0.0059,0.9973,0.0037,0.0027,-0.0013,1000,0.00,0.00
10997,1.38,0.0015,0.0020,1.0134,0.0025,-0.0012,0.0000,1000,0.00,0.00
11047,1.37,0.0044,0.0027,0.9971,0.0035,0.0011,-0.0003,1000,0.00,0.00
11098,1.38,0.0012,0.0029,1.0017,-0.0001,0.0035,0.0007,1000,0.00,0.00
11149,1.38,0.0017,-0.0022,1.0015,-0.0004,-0.0015,-0.0017,1000,0.00,0.00
11200,1.37,-0.0010,0.0054,1.0012,-0.0048,0.0013,-0.0027,1000,0.00,0.00
11250,1.36,-0.0007,-0.0071,0.9895,0.0033,-0.0041,-0.0023,1000,0.00,0.00
11301,1.35,0.0071,-0.0007,0.9973,0.0020,-0.0007,-0.0009,1000,0.00,0.00
11352,1.34,0.0090,-0.0093,0.9980,0.0041,0.0035,-0.0004,1000,0.00,0.00
11403,1.33,0.0034,-0.0005,0.9924,-0.0021,-0.0007,0.0019,1000,0.00,0.00
11453,1.31,-0.0024,-0.0022,1.0049,-0.0003,0.0023,0.0011,1000,0.00,0.00
11504,1.29,-0.0034,0.0132,1.0200,0.0061,0.0083,0.0039,1000,0.00,0.00
11555,1.30,-0.0054,0.0054,0.9915,-0.0013,-0.0036,-0.0028,1000,0.00,0.00
11606,1.29,0.0042,-0.0007,1.0022,-0.0067,-0.0025,0.0004,1000,0.00,0.00
11656,1.28,0.0015,-0.0139,1.0081,0.0011,-0.0012,0.0012,1000,0.00,0.00
11707,1.27,-0.0002,-0.0042,1.0083,0.0003,0.0017,0.0005,1000,0.00,0.00
11758,1.27,0.0015,-0.0100,0.9971,-0.0007,-0.0008,-0.0009,1000,0.00,0.00
11809,1.27,0.0032,-0.0002,1.0083,-0.0004,-0.0025,0.0003,1000,0.00,0.00
11860,1.26,0.0022,-0.0020,1.0024,0.0004,-0.0007,0.0039,1000,0.00,0.00
11912,1.26,-0.0042,0.0076,0.9919,0.0003,-0.0007,0.0024,1000,0.00,0.00
11963,1.25,-0.0066,-0.0112,1.0037,-0.0024,0.0021,0.0044,1000,0.00,0.00
12013,1.25,0.0100,0.0078,0.9983,-0.0056,0.0008,-0.0019,1000,0.00,0.00
12064,1.24,-0.0066,-0.0212,1.0054,-0.0040,-0.0023,-0.0015,1000,0.00,0.00
12115,1.24,0.0015,0.0063,0.9985,0.0008,0.0015,0.0024,1000,0.00,0.00
12166,1.24,0.0024,-0.0007,0.9978,0.0041,-0.0008,0.0001,1000,0.00,0.00
12216,1.24,-0.0105,0.0066,1.0032,0.0005,-0.0001,0.0016,1000,0.00,0.00
12267,1.25,0.0034,0.0005,0.9980,-0.0009,-0.0012,-0.0016,1000,0.00,0.00
12318,1.25,0.0044,0.0007,1.0093,0.0001,-0.0001,-0.0008,1000,0.00,0.00
12369,1.24,0.0024,-0.0071,0.9944,-0.0039,-0.0021,0.0001,1000,0.00,0.00
12419,1.24,-0.0034,-0.0005,1.0007,-0.0005,0.0004,0.0007,1000,0.00,0.00
12470,1.26,-0.0007,0.0044,1.0098,-0.0025,0.0033,0.0000,1000,0.00,0.00
12521,1.26,0.0024,-0.0066,1.0039,0.0013,0.0016,-0.0007,1000,0.00,0.00
12572,1.28,0.0071,0.0020,1.0002,0.0012,-0.0009,-0.0005,1000,0.00,0.00
12622,1.30,0.0061,-0.0027,0.9963,0.0013,0.0005,0.0033,1000,0.00,0.00
12673,1.33,0.0037,0.0054,1.0054,0.0012,-0.0008,-0.0044,1000,0.00,0.00
12724,1.36,0.0032,0.0017,1.0085,0.0020,-0.0013,0.0025,1000,0.00,0.00
12775,1.36,0.0066,-0.0020,1.0046,-0.0023,0.0000,0.0004,1000,0.00,0.00
12825,1.36,0.0002,-0.0037,1.0000,0.0027,0.0001,-0.0011,1000,0.00,0.00
12877,1.37,0.0039,-0.0017,0.9985,-0.0015,-0.0001,0.0020,1000,0.00,0.00
12928,1.39,0.0017,0.0012,1.0073,0.0021,0.0001,0.0019,1000,0.00,0.00
12979,1.37,0.0000,0.0012,0.9983,0.0024,0.0020,0.0019,1000,0.00,0.00
13030,1.36,0.0042,0.0024,1.0005,0.0011,0.0020,0.0020,1000,0.00,0.00
13081,1.35,0.0000,0.0017,1.0007,0.0007,-0.0011,-0.0035,1000,0.00,0.00
13131,1.36,0.0002,0.0027,1.0061,-0.0025,-0.0012,-0.0028,1000,0.00,0.00
13182,1.35,-0.0029,-0.0010,1.0034,0.0037,0.0019,-0.0047,1000,0.00,0.00
13233,1.35,-0.0024,-0.0002,1.0010,0.0003,0.0011,0.0024,1000,0.00,0.00
13284,1.34,0.0095,-0.0054,0.9958,-0.0032,0.0009,-0.0024,1000,0.00,0.00
13334,1.33,0.0010,0.0088,1.0012,-0.0032,0.0039,0.0004,1000,0.00,0.00
13385,1.32,0.0085,-0.0322,1.0005,0.0017,-0.0015,-0.0031,1000,0.00,0.00
13436,1.32,0.0110,0.0073,0.9980,0.0063,-0.0052,0.0065,1000,0.00,0.00
13487,1.32,0.0120,-0.0168,1.0046,-0.0023,-0.0033,-0.0207,1000,0.00,0.00
13537,1.31,-0.0078,-0.0015,1.0059,-0.0048,0.0023,0.0145,1000,0.00,0.00
13588,1.32,-0.0066,0.0127,0.9978,0.0029,0.0033,-0.0001,1000,0.00,0.00
13639,1.32,0.0034,-0.0132,1.0017,-0.0021,-0.0023,-0.0095,1000,0.00,0.00
13690,1.32,0.0037,0.0034,0.9937,0.0040,0.0001,0.0009,1000,0.00,0.00
13740,1.32,0.0027,0.0125,0.9956,0.0037,-0.0008,0.0007,1000,0.00,0.00
13791,1.31,-0.0020,-0.0127,1.0056,0.0000,-0.0012,-0.0005,1000,0.00,0.00
13842,1.34,-0.0117,0.0154,0.9993,-0.0019,0.0019,0.0008,1000,0.00,0.00
13893,1.35,0.0105,0.0005,1.0017,0.0028,-0.0012,-0.0016,1000,0.00,0.00
13945,1.36,-0.0037,-0.0076,0.9990,-0.0032,-0.0013,0.0016,1000,0.00,0.00
13996,1.37,0.0020,0.0046,0.9944,-0.0035,0.0001,-0.0013,1000,0.00,0.00
14046,1.37,0.0017,-0.0017,1.0020,0.0000,-0.0012,0.0017,1000,0.00,0.00
14097,1.38,0.0000,0.0024,0.9944,0.0019,0.0015,-0.0011,1000,0.00,0.00
14148,1.37,0.0017,0.0020,0.9810,-0.0020,0.0044,0.0008,1000,0.00,0.00
14199,1.37,0.0066,0.0005,0.9932,0.0036,-0.0013,-0.0017,1000,0.00,0.00
14249,1.37,-0.0061,0.0046,1.0095,0.0015,0.0011,0.0027,1000,0.00,0.00
14300,1.38,-0.0007,0.0000,1.0083,0.0007,-0.0041,0.0052,1000,0.00,0.00
14351,1.37,-0.0159,0.0049,1.0129,0.0061,-0.0059,0.0021,1000,0.00,0.00
14402,1.35,0.0022,0.0037,1.0061,0.0025,0.0044,0.0068,1000,0.00,0.00
14452,1.34,0.0061,-0.0051,0.9866,0.0025,-0.0025,-0.0009,1000,0.00,0.00
14503,1.35,0.0056,0.0020,1.0020,0.0041,0.0007,0.0027,1000,0.00,0.00
14554,1.36,-0.0029,-0.0015,1.0090,0.0028,0.0008,-0.0004,1000,0.00,0.00
14605,1.37,-0.0005,-0.0061,0.9968,-0.0037,-0.0011,0.0011,1000,0.00,0.00
14655,1.39,-0.0012,-0.0081,1.0059,0.0032,0.0048,0.0017,1000,0.00,0.00
14706,1.39,-0.0012,0.0056,0.9998,0.0037,0.0009,0.0007,1000,0.00,0.00
14757,1.39,0.0032,0.0027,0.9998,0.0000,0.0028,-0.0003,1000,0.00,0.00
14808,1.39,0.0078,0.0078,1.0042,-0.0009,0.0004,0.0016,1000,0.00,0.00
14858,1.39,-0.0051,-0.0027,1.0000,-0.0016,0.0049,0.0011,1000,0.00,0.00
14910,1.38,-0.0039,0.0005,0.9917,0.0003,0.0020,0.0021,1000,0.00,0.00
14961,1.38,0.0076,-0.0037,0.9971,0.0039,-0.0012,-0.0025,1000,0.00,0.00
15012,1.41,-0.0112,0.0078,1.0210,0.0048,-0.0017,0.0029,1000,0.00,0.00
15063,1.41,0.0002,0.0007,1.0076,0.0025,0.0021,-0.0011,1000,0.00,0.00
15114,1.41,0.0056,-0.0032,1.0039,0.0020,0.0012,0.0020,1000,0.00,0.00
15164,1.43,-0.0037,-0.0005,1.0000,0.0040,-0.0023,0.0009,1000,0.00,0.00
15215,1.46,0.0205,0.0178,0.9990,-0.0033,-0.0013,0.0067,1000,0.00,0.00
15266,1.49,0.0034,0.0051,0.9985,-0.0063,-0.0053,-0.0033,1000,0.00,0.00
15317,1.51,-0.0083,-0.0081,0.9973,-0.0063,0.0015,-0.0049,1000,0.00,0.00
15367,1.52,0.0244,-0.0298,0.9917,0.0180,0.0123,-0.0266,1000,0.00,0.00
15418,1.49,0.0198,-0.0037,1.0171,0.0103,-0.0037,-0.0149,1000,0.00,0.00
15469,1.48,0.0012,-0.0220,1.0322,0.0027,0.0063,-0.0084,1000,0.00,0.00
15520,1.45,-0.0054,-0.0044,1.0269,0.0075,0.0001,0.0083,1000,0.00,0.00
15570,1.42,-0.0034,-0.0002,1.0054,0.0055,-0.0024,-0.0037,1000,0.00,0.00
15621,1.39,-0.0032,-0.0132,1.0046,-0.0037,-0.0045,-0.0156,1000,0.00,0.00
15672,1.35,0.0056,0.0303,0.9917,-0.0167,0.0012,-0.0633,1000,0.00,0.00
15723,1.32,0.0144,-0.0247,0.9880,-0.0024,0.0032,0.0317,1000,0.00,0.00
15773,1.30,-0.0464,0.0330,0.9971,0.0071,0.0032,0.0294,1000,0.00,0.00
15824,1.29,0.0027,-0.0022,1.0125,0.0064,-0.0013,-0.0361,1000,0.00,0.00
15875,1.31,0.0261,-0.0107,0.9968,-0.0011,0.0013,-0.0059,1000,0.00,0.00
15927,1.32,-0.0054,0.0066,1.0039,-0.0033,0.0003,0.0213,1000,0.00,0.00
15978,1.33,-0.0203,-0.0002,1.0198,0.0020,-0.0096,0.0087,1000,0.00,0.00
16029,1.34,0.0051,-0.0034,1.0127,0.0011,-0.0003,-0.0041,1000,0.00,0.00
16080,1.34,-0.0032,0.0022,0.9993,0.0053,0.0011,0.0087,1000,0.00,0.00
16130,1.35,0.0005,-0.0061,1.0125,0.0043,0.0016,-0.0013,1000,0.00,0.00
16181,1.35,0.0005,0.0046,1.0022,0.0009,-0.0012,0.0019,1000,0.00,0.00
16232,1.35,0.0012,-0.0020,1.0015,-0.0011,-0.0011,-0.0019,1000,0.00,0.00
16283,1.35,-0.0024,-0.0042,0.9985,-0.0019,-0.0029,-0.0027,1000,0.00,0.00
16333,1.36,0.0071,-0.0046,0.9956,-0.0008,-0.0009,0.0007,1000,0.00,0.00
16384,1.35,0.0020,0.0022,1.0027,0.0040,0.0016,0.0024,1000,0.00,0.00
16435,1.34,0.0012,0.0059,0.9973,0.0029,0.0024,0.0001,1000,0.00,0.00
16486,1.32,-0.0005,0.0051,1.0073,0.0011,-0.0011,0.0008,1000,0.00,0.00
16536,1.31,0.0071,-0.0015,0.9963,0.0003,-0.0011,0.0021,1000,0.00,0.00
16587,1.30,0.0027,-0.0007,1.0054,0.0017,-0.0028,0.0017,1000,0.00,0.00
16638,1.28,0.0015,0.0049,0.9976,0.0013,-0.0035,-0.0003,1000,0.00,0.00
16688,1.27,-0.0015,-0.0032,1.0022,0.0008,-0.0008,0.0003,1000,0.00,0.00
16739,1.27,-0.0032,0.0010,1.0032,0.0025,-0.0003,0.0021,1000,0.00,0.00
16790,1.27,0.0034,0.0012,0.9976,0.0013,-0.0001,0.0007,1000,0.00,0.00
16841,1.27,-0.0054,-0.0002,0.9944,0.0037,0.0020,0.0013,1000,0.00,0.00
16891,1.25,0.0059,0.0034,0.9993,-0.0001,0.0011,0.0007,1000,0.00,0.00
16943,1.24,-0.0093,0.0078,1.0107,0.0000,-0.0005,0.0001,1000,0.00,0.00
16995,1.25,-0.0051,0.0024,0.9985,-0.0003,-0.0004,-0.0005,1000,0.00,0.00
17045,1.27,-0.0012,-0.0022,0.9985,-0.0012,0.0003,-0.0013,1000,0.00,0.00
17096,1.29,0.0071,-0.0039,0.9924,0.0000,-0.0020,0.0033,1000,0.00,0.00
17147,1.31,0.0073,0.0024,1.0010,0.0007,-0.0007,-0.0021,1000,0.00,0.00
17198,1.33,-0.0017,-0.0002,1.0012,0.0007,0.0013,0.0011,1000,0.00,0.00
17248,1.35,-0.0002,-0.0022,1.0078,0.0001,-0.0004,0.0000,1000,0.00,0.00
17299,1.36,0.0010,-0.0032,1.0073,0.0005,0.0015,-0.0004,1000,0.00,0.00
17350,1.36,0.0049,0.0007,1.0029,0.0009,-0.0009,-0.0012,1000,0.00,0.00
17401,1.36,-0.0012,-0.0005,1.0056,0.0003,-0.0003,-0.0007,1000,0.00,0.00
17451,1.34,0.0012,0.0010,0.9995,0.0007,-0.0008,0.0008,1000,0.00,0.00
17502,1.32,-0.0049,-0.0007,1.0042,-0.0012,0.0013,0.0029,1000,0.00,0.00
17553,1.30,-0.0024,-0.0071,1.0002,-0.0001,0.0012,0.0012,1000,0.00,0.00
17604,1.28,0.0002,0.0059,1.0024,-0.0001,0.0020,0.0009,1000,0.00,0.00
17654,1.28,-0.0085,0.0042,1.0081,-0.0016,0.0009,0.0033,1000,0.00,0.00
17705,1.29,-0.0129,0.0005,1.0002,0.0008,0.0008,-0.0045,1000,0.00,0.00
17756,1.29,0.0103,-0.0061,1.0107,0.0020,0.0024,0.0012,1000,0.00,0.00
17807,1.27,-0.0042,0.0054,0.9963,0.0024,0.0004,-0.0031,1000,0.00,0.00
17857,1.25,0.0017,0.0061,0.9983,-0.0017,0.0017,-0.0029,1000,0.00,0.00
17908,1.22,-0.0195,0.0161,1.0020,-0.0035,-0.0044,0.0059,1000,0.00,0.00
17960,1.21,0.0034,-0.0073,1.0012,-0.0017,0.0001,-0.0069,1000,0.00,0.00
18011,1.19,-0.0237,0.0024,1.0022,0.0068,0.0041,0.0316,1000,0.00,0.00
18062,1.17,0.0227,-0.0181,0.9946,0.0052,-0.0020,-0.0172,1000,0.00,0.00
18113,1.16,-0.0129,0.0110,1.0093,0.0068,0.0031,0.0273,1000,0.00,0.00
18163,1.13,-0.0095,-0.0010,1.0000,-0.0039,0.0047,0.0033,1000,0.00,0.00
18214,1.09,0.0146,-0.0068,1.0046,0.0021,0.0008,-0.0013,1000,0.00,0.00
18265,1.06,0.0020,-0.0054,0.9990,0.0032,-0.0013,0.0011,1000,0.00,0.00
18316,1.04,-0.0005,-0.0044,0.9966,-0.0011,0.0007,0.0025,1000,0.00,0.00
18366,1.02,0.0159,0.0042,1.0093,0.0032,0.0004,-0.0007,1000,0.00,0.00
18417,1.03,-0.0059,-0.0083,1.0125,0.0017,0.0009,0.0021,1000,0.00,0.00
18468,1.07,0.0029,-0.0005,1.0098,0.0012,0.0008,-0.0016,1000,0.00,0.00
18519,1.10,0.0071,-0.0327,0.9529,0.0229,-0.0049,-0.0123,1000,0.00,0.00
18569,1.15,-0.0044,0.0005,0.9941,-0.0004,0.0071,0.0304,1000,0.00,0.00
18620,1.21,-0.0186,0.0056,1.0017,-0.0048,-0.0028,0.0075,1000,0.00,0.00
18671,1.26,0.0105,-0.0125,0.9927,-0.0008,-0.0013,-0.0144,1000,0.00,0.00
18722,1.31,0.0049,0.0122,1.0051,-0.0033,0.0009,0.0129,1000,0.00,0.00
18772,1.36,-0.0049,0.0076,0.9932,-0.0003,0.0032,-0.0039,1000,0.00,0.00
18823,1.39,0.0073,-0.0054,1.0063,0.0024,0.0020,0.0047,1000,0.00,0.00
18874,1.42,-0.0105,0.0071,1.0024,0.0013,0.0015,0.0112,1000,0.00,0.00
18925,1.41,0.0027,-0.0032,1.0063,0.0005,0.0016,-0.0031,1000,0.00,0.00
18976,1.39,0.0183,-0.0078,0.9250,-0.0032,-0.0056,0.0032,1000,0.00,0.00
19028,1.37,-0.0117,0.0029,0.9937,0.0009,-0.0003,0.0048,1000,0.00,0.00
19078,1.35,-0.0005,0.0022,1.0071,0.0036,0.0008,-0.0044,1000,0.00,0.00
19129,1.32,0.0037,0.0015,1.0046,0.0019,0.0019,0.0068,1000,0.00,0.00
19180,1.29,-0.0046,0.0034,0.9983,0.0000,0.0019,0.0036,1000,0.00,0.00
19231,1.26,0.0012,-0.0012,1.0015,-0.0019,-0.0008,-0.0036,1000,0.00,0.00
19281,1.23,-0.0010,0.0078,0.9924,0.0033,0.0027,0.0000,1000,0.00,0.00
19332,1.21,0.0015,-0.0010,1.0017,-0.0003,0.0003,0.0019,1000,0.00,0.00
19383,1.17,-0.0039,-0.0034,1.0000,-0.0025,0.0032,-0.0013,1000,0.00,0.00
19434,1.14,0.0017,0.0032,0.9944,-0.0003,0.0011,-0.0012,1000,0.00,0.00
19484,1.12,0.0000,0.0000,1.0005,-0.0009,-0.0005,-0.0037,1000,0.00,0.00
19535,1.11,0.0027,-0.0081,1.0039,0.0008,0.0005,-0.0003,1000,0.00,0.00
19586,1.09,0.0015,-0.0059,0.9910,0.0023,0.0003,0.0024,1000,0.00,0.00
19637,1.08,-0.0027,-0.0022,1.0032,0.0035,0.0007,0.0008,1000,0.00,0.00
19687,1.06,0.0010,0.0022,0.9961,-0.0005,-0.0005,-0.0053,1000,0.00,0.00
19738,1.05,0.0000,0.0046,1.0000,0.0023,0.0015,0.0064,1000,0.00,0.00
19789,1.04,-0.0073,0.0049,1.0005,0.0019,0.0005,0.0005,1000,0.00,0.00
19840,1.03,0.0010,-0.0071,0.9949,0.0051,0.0017,0.0019,1000,0.00,0.00
19890,1.02,-0.0037,0.0022,0.9937,0.0048,0.0000,-0.0007,1000,0.00,0.00
19941,1.02,0.0000,-0.0027,1.0000,-0.0001,0.0000,0.0015,1000,0.00,0.00
19993,1.02,0.0017,-0.0037,1.0071,0.0001,-0.0009,0.0037,1000,0.00,0.00
20044,1.02,-0.0056,-0.0039,0.9988,-0.0015,0.0001,0.0015,1000,0.00,0.00
20095,1.01,-0.0042,-0.0027,0.9937,0.0009,0.0011,0.0020,1000,0.00,0.00
20146,1.00,-0.0024,-0.0039,1.0007,0.0000,-0.0008,-0.0007,1000,0.00,0.00
20196,0.99,0.0024,-0.0078,1.0063,0.0012,-0.0011,0.0025,1000,0.00,0.00
20247,1.00,0.0012,-0.0022,1.0061,0.0027,0.0033,-0.0003,1000,0.00,0.00
20298,0.98,-0.0042,0.0034,0.9968,0.0005,0.0001,0.0011,1000,0.00,0.00
20349,0.96,-0.0007,0.0002,0.9924,-0.0017,0.0001,0.0017,1000,0.00,0.00
20399,0.95,0.0295,0.0063,0.9836,-0.0056,-0.0100,-0.0059,1000,0.00,0.00
20450,0.93,-0.0083,0.0076,0.9878,0.0047,0.0007,0.0137,1000,0.00,0.00
20501,0.90,-0.0105,0.0046,1.0044,0.0045,0.0039,-0.0039,1000,0.00,0.00
20552,0.88,0.0061,-0.0049,0.9978,0.0049,-0.0033,-0.0048,1000,0.00,0.00
20602,0.85,0.0068,-0.0032,0.9980,0.0008,-0.0004,0.0023,1000,0.00,0.00
20653,0.85,-0.0044,-0.0095,1.0032,0.0016,0.0021,0.0048,1000,0.00,0.00
20704,0.83,-0.0017,-0.0081,1.0063,0.0033,0.0019,0.0005,1000,0.00,0.00
20755,0.82,-0.0034,0.0071,0.9973,0.0048,-0.0025,-0.0019,1000,0.00,0.00
20805,0.81,-0.0051,-0.0125,1.0049,0.0060,0.0005,0.0069,1000,0.00,0.00
20856,0.80,-0.0134,0.0100,1.0024,-0.0021,0.0021,-0.0019,1000,0.00,0.00
20907,0.80,0.0066,-0.0117,1.0046,-0.0032,0.0013,-0.0056,1000,0.00,0.00
20958,0.79,-0.0054,-0.0093,0.9976,0.0031,0.0015,0.0051,1000,0.00,0.00
21009,0.79,0.0012,0.0034,1.0063,-0.0005,-0.0003,-0.0060,1000,0.00,0.00
21061,0.78,0.0095,-0.0100,1.0022,-0.0024,-0.0017,0.0025,1000,0.00,0.00
21111,0.77,-0.0020,-0.0032,0.9897,0.0000,0.0017,0.0016,1000,0.00,0.00
21162,0.77,-0.0022,0.0002,0.9956,0.0025,0.0007,-0.0003,1000,0.00,0.00
21213,0.75,-0.0007,0.0017,0.9963,0.0055,-0.0005,-0.0017,1000,0.00,0.00
21264,0.73,0.0012,0.0032,1.0005,0.0005,0.0020,0.0008,1000,0.00,0.00
21314,0.72,0.0012,0.0051,0.9934,-0.0016,0.0013,0.0027,1000,0.00,0.00
21365,0.73,-0.0020,0.0017,1.0083,-0.0027,0.0007,0.0009,1000,0.00,0.00
21416,0.72,0.0002,0.0022,1.0012,0.0009,-0.0003,0.0013,1000,0.00,0.00
21467,0.72,0.0012,0.0012,1.0022,0.0008,0.0029,0.0003,1000,0.00,0.00
21517,0.72,0.0061,0.0027,1.0039,0.0005,0.0029,0.0155,1000,0.00,0.00
21568,0.73,-0.0071,-0.0034,0.9924,0.0103,0.0016,-0.0051,1000,0.00,0.00
21619,0.75,0.0149,-0.0007,0.9971,0.0036,0.0013,-0.0021,1000,0.00,0.00
21670,0.76,0.0012,0.0034,1.0000,0.0025,0.0009,0.0045,1000,0.00,0.00
21720,0.76,-0.0149,0.0032,0.9993,0.0003,0.0009,0.0163,1000,0.00,0.00
21771,0.77,-0.0068,0.0068,1.0029,-0.0027,-0.0011,-0.0077,1000,0.00,0.00
21822,0.79,0.0093,0.0017,1.0056,-0.0001,-0.0025,-0.0041,1000,0.00,0.00
21873,0.81,0.0022,-0.0017,0.9951,-0.0028,0.0011,0.0092,1000,0.00,0.00
21923,0.84,0.0005,-0.0012,1.0032,0.0012,0.0040,-0.0027,1000,0.00,0.00
21974,0.86,-0.0027,-0.0054,1.0007,0.0021,0.0008,0.0100,1000,0.00,0.00
22026,0.88,-0.0054,0.0002,0.9934,0.0020,-0.0011,0.0015,1000,0.00,0.00
22077,0.89,-0.0005,0.0024,1.0076,0.0025,0.0021,-0.0049,1000,0.00,0.00
22128,0.88,0.0012,-0.0054,1.0015,-0.0017,-0.0017,0.0021,1000,0.00,0.00
22179,0.88,0.0076,0.0002,0.9954,0.0019,0.0023,0.0019,1000,0.00,0.00
22229,0.88,-0.0032,0.0022,0.9963,-0.0023,0.0036,-0.0012,1000,0.00,0.00
22280,0.88,0.0044,0.0015,0.9951,0.0020,-0.0032,0.0039,1000,0.00,0.00
22331,0.88,-0.0056,0.0120,0.9956,0.0008,-0.0001,-0.0059,1000,0.00,0.00
22382,0.87,0.0132,-0.0095,1.0129,0.0009,-0.0004,-0.0057,1000,0.00,0.00
22432,0.87,-0.0120,-0.0188,1.0032,0.0044,0.0063,0.0085,1000,0.00,0.00
22483,0.86,-0.0073,-0.0239,1.0166,0.0051,0.0031,-0.0040,1000,0.00,0.00
22534,0.85,0.0037,-0.0132,0.9968,0.0097,0.0009,0.0052,1000,0.00,0.00
22585,0.84,-0.0024,0.0044,1.0029,0.0069,-0.0015,0.0080,1000,0.00,0.00
22635,0.84,0.0059,0.0076,1.0000,0.0041,-0.0013,-0.0035,1000,0.00,0.00
22686,0.82,0.0007,0.0176,0.9976,0.0017,0.0029,0.0047,1000,0.00,0.00
22737,0.80,-0.0022,0.0134,0.9990,0.0008,-0.0003,0.0009,1000,0.00,0.00
22788,0.79,-0.0063,0.0002,1.0027,-0.0037,0.0019,-0.0032,1000,0.00,0.00
22838,0.78,0.0032,0.0034,1.0032,0.0020,-0.0015,-0.0019,1000,0.00,0.00
22889,0.77,0.0059,0.0000,0.9983,-0.0003,-0.0027,-0.0039,1000,0.00,0.00
22940,0.77,-0.0059,-0.0166,1.0029,0.0048,-0.0045,0.0153,1000,0.00,0.00
22991,0.76,-0.0049,0.0059,1.0007,0.0009,-0.0016,-0.0029,1000,0.00,0.00
23043,0.76,0.0046,0.0022,1.0039,0.0041,0.0007,-0.0096,1000,0.00,0.00
23094,0.76,0.0125,0.0002,1.0107,-0.0023,-0.0021,0.0041,1000,0.00,0.00
23145,0.74,-0.0051,-0.0020,1.0044,0.0005,-0.0009,0.0069,1000,0.00,0.00
23196,0.74,-0.0063,-0.0017,1.0032,0.0009,0.0035,-0.0015,1000,0.00,0.00
23246,0.73,0.0022,-0.0039,1.0066,0.0031,-0.0017,-0.0011,1000,0.00,0.00
23297,0.72,-0.0051,-0.0027,1.0068,0.0016,0.0011,-0.0012,1000,0.00,0.00
23348,0.71,-0.0002,-0.0029,0.9937,0.0007,-0.0033,0.0008,1000,0.00,0.00
23399,0.69,-0.0029,0.0000,1.0122,0.0019,-0.0003,0.0012,1000,0.00,0.00
23449,0.68,-0.0051,0.0000,0.9971,-0.0009,-0.0007,0.0004,1000,0.00,0.00
23500,0.67,-0.0015,0.0056,1.0005,0.0012,0.0007,0.0009,1000,0.00,0.00
23551,0.66,-0.0002,-0.0007,0.9841,0.0012,-0.0015,-0.0021,1000,0.00,0.00
23602,0.66,-0.0039,0.0093,1.0027,0.0007,-0.0007,-0.0023,1000,0.00,0.00
23652,0.66,0.0071,0.0017,0.9998,0.0035,0.0003,0.0003,1000,0.00,0.00
23703,0.65,-0.0061,0.0049,0.9954,0.0016,-0.0033,0.0093,1000,0.00,0.00
23754,0.65,-0.0046,-0.0022,1.0007,0.0008,0.0013,-0.0044,1000,0.00,0.00
23805,0.65,0.0051,0.0007,0.9983,0.0028,0.0003,-0.0049,1000,0.00,0.00
23855,0.66,-0.0020,0.0076,1.0068,-0.0019,0.0008,0.0023,1000,0.00,0.00
23906,0.66,0.0066,0.0020,0.9993,0.0007,0.0025,0.0017,1000,0.00,0.00
23957,0.66,-0.0015,-0.0012,0.9912,0.0023,0.0016,0.0005,1000,0.00,0.00
24008,0.67,-0.0029,-0.0010,1.0103,-0.0003,0.0013,-0.0012,1000,0.00,0.00
24059,0.67,-0.0044,0.0024,0.9978,-0.0019,0.0001,0.0029,1000,0.00,0.00
24111,0.69,0.0063,-0.0027,1.0046,0.0003,0.0003,0.0011,1000,0.00,0.00
24161,0.69,-0.0012,0.0039,0.9897,0.0013,0.0024,0.0007,1000,0.00,0.00
24212,0.71,0.0024,0.0020,0.9990,-0.0012,0.0013,-0.0028,1000,0.00,0.00
24263,0.72,-0.0002,-0.0007,1.0005,0.0023,0.0003,0.0007,1000,0.00,0.00
24314,0.73,-0.0032,0.0037,1.0076,0.0012,0.0009,0.0013,1000,0.00,0.00
24364,0.74,-0.0017,0.0024,0.9941,-0.0013,0.0020,-0.0025,1000,0.00,0.00
24415,0.75,-0.0012,0.0020,1.0051,0.0000,-0.0032,0.0013,1000,0.00,0.00
24466,0.76,0.0012,-0.0037,0.9956,0.0019,-0.0009,0.0028,1000,0.00,0.00
24517,0.76,-0.0002,0.0061,0.9973,0.0003,0.0013,0.0004,1000,0.00,0.00
24567,0.78,-0.0046,0.0046,0.9973,0.0012,0.0004,0.0019,1000,0.00,0.00
24618,0.78,0.0029,0.0022,1.0002,0.0013,0.0036,0.0012,1000,0.00,0.00
24669,0.78,0.0000,0.0073,1.0051,-0.0027,0.0008,0.0039,1000,0.00,0.00
24720,0.79,0.0000,-0.0154,1.0049,-0.0004,-0.0003,-0.0003,1000,0.00,0.00
24770,0.79,-0.0027,-0.0044,0.9973,0.0008,0.0013,0.0015,1000,0.00,0.00
24821,0.81,-0.0024,0.0020,1.0002,0.0044,0.0013,-0.0004,1000,0.00,0.00
24872,0.81,-0.0017,0.0046,0.9961,0.0040,-0.0003,0.0000,1000,0.00,0.00
24923,0.80,0.0066,0.0061,1.0000,0.0024,0.0020,-0.0017,1000,0.00,0.00
24973,0.81,0.0020,-0.0034,0.9971,0.0039,-0.0032,0.0004,1000,0.00,0.00
25024,0.83,0.0017,0.0100,0.9971,-0.0016,0.0017,-0.0016,1000,0.00,0.00
25076,0.84,-0.0017,0.0024,0.9890,0.0009,-0.0011,0.0008,1000,0.00,0.00
25127,0.86,0.0056,-0.0029,1.0000,-0.0005,0.0013,-0.0024,1000,0.00,0.00
25178,0.86,0.0020,-0.0034,1.0010,-0.0012,0.0001,0.0008,1000,0.00,0.00
25229,0.89,0.0022,-0.0034,0.9966,0.0025,-0.0009,0.0003,1000,0.00,0.00
25280,0.93,-0.0022,0.0037,1.0034,0.0012,0.0005,-0.0001,1000,0.00,0.00
25330,0.95,-0.0044,-0.0029,0.9910,0.0012,0.0011,-0.0009,1000,0.00,0.00
25381,0.97,-0.0010,0.0012,1.0095,0.0033,0.0012,-0.0005,1000,0.00,0.00
25432,0.98,0.0012,0.0051,0.9993,-0.0003,0.0015,0.0003,1000,0.00,0.00
25483,1.00,0.0015,0.0046,0.9958,0.0028,0.0011,-0.0031,1000,0.00,0.00
25533,1.00,-0.0017,-0.0078,1.0071,-0.0007,0.0013,-0.0028,1000,0.00,0.00
25584,1.01,-0.0039,0.0139,0.9910,-0.0044,-0.0029,-0.0024,1000,0.00,0.00
25635,1.01,0.0029,-0.0012,1.0088,-0.0012,0.0005,-0.0025,1000,0.00,0.00
25686,1.01,0.0024,0.0024,1.0071,-0.0009,0.0023,0.0012,1000,0.00,0.00
25736,1.02,0.0000,0.0078,0.9973,-0.0025,0.0039,-0.0041,1000,0.00,0.00
25787,1.02,-0.0002,0.0076,0.9988,-0.0001,0.0007,0.0065,1000,0.00,0.00
25838,1.01,0.0007,0.0034,0.9995,0.0027,-0.0013,-0.0045,1000,0.00,0.00
25889,1.01,0.0017,0.0068,0.9963,0.0059,-0.0007,-0.0031,1000,0.00,0.00
25939,1.01,0.0015,0.0039,0.9995,0.0016,0.0017,0.0072,1000,0.00,0.00
25990,1.00,-0.0022,0.0046,1.0000,0.0001,0.0001,0.0020,1000,0.00,0.00
26041,0.99,-0.0039,0.0068,0.9915,0.0011,0.0000,0.0023,1000,0.00,0.00
26092,0.98,0.0039,0.0027,0.9966,-0.0020,0.0004,-0.0008,1000,0.00,0.00
26144,0.98,-0.0005,-0.0044,0.9917,-0.0027,0.0001,-0.0017,1000,0.00,0.00
26195,0.96,-0.0044,-0.0012,1.0002,0.0019,0.0000,0.0051,1000,0.00,0.00
26245,0.96,-0.0005,-0.0054,1.0076,0.0009,0.0007,0.0017,1000,0.00,0.00
26296,0.95,0.0012,-0.0007,1.0063,0.0043,-0.0009,-0.0011,1000,0.00,0.00
26347,0.93,0.0015,0.0032,1.0054,0.0019,0.0052,0.0027,1000,0.00,0.00
26398,0.92,-0.0012,0.0010,1.0107,0.0023,0.0001,-0.0009,1000,0.00,0.00
26448,0.90,0.0010,-0.0022,0.9990,-0.0013,0.0005,0.0047,1000,0.00,0.00
26499,0.89,-0.0083,-0.0027,1.0007,0.0036,0.0011,0.0013,1000,0.00,0.00
26550,0.87,0.0046,0.0005,1.0010,-0.0040,0.0001,-0.0008,1000,0.00,0.00
26601,0.84,0.0012,-0.0073,1.0022,0.0024,0.0019,-0.0008,1000,0.00,0.00
26651,0.81,-0.0015,-0.0042,1.0007,0.0019,0.0008,0.0011,1000,0.00,0.00
26702,0.80,-0.0002,0.0000,1.0000,0.0000,0.0005,0.0019,1000,0.00,0.00
26753,0.79,-0.0005,-0.0046,0.9937,0.0021,-0.0017,0.0015,1000,0.00,0.00
26804,0.77,0.0017,-0.0073,1.0010,0.0016,-0.0004,-0.0009,1000,0.00,0.00
26854,0.74,-0.0049,-0.0027,1.0046,0.0019,0.0017,0.0033,1000,0.00,0.00
26905,0.73,-0.0073,0.0081,0.9893,0.0011,0.0004,-0.0005,1000,0.00,0.00
26956,0.72,0.0005,0.0049,1.0000,0.0013,-0.0007,0.0021,1000,0.00,0.00
27007,0.70,0.0076,-0.0022,0.9968,0.0003,0.0027,0.0008,1000,0.00,0.00
27057,0.69,0.0027,-0.0044,1.0017,-0.0011,-0.0001,0.0016,1000,0.00,0.00
27109,0.67,-0.0044,-0.0156,1.0005,0.0024,-0.0016,0.0027,1000,0.00,0.00
27160,0.65,0.0039,0.0024,0.9995,-0.0035,0.0012,-0.0015,1000,0.00,0.00
27211,0.64,-0.0017,-0.0027,1.0066,0.0033,-0.0013,-0.0011,1000,0.00,0.00
27262,0.62,-0.0005,0.0005,0.9905,0.0017,-0.0019,-0.0043,1000,0.00,0.00
27313,0.61,-0.0007,0.0022,1.0005,0.0045,-0.0015,0.0047,1000,0.00,0.00
27363,0.59,0.0044,0.0005,1.0005,0.0041,-0.0020,0.0009,1000,0.00,0.00
27414,0.57,0.0022,0.0024,0.9976,0.0019,0.0000,0.0009,1000,0.00,0.00
27465,0.56,-0.0034,0.0029,0.9978,-0.0015,0.0008,0.0001,1000,0.00,0.00
27516,0.56,0.0020,-0.0010,1.0000,-0.0013,0.0001,0.0008,1000,0.00,0.00
27566,0.56,-0.0034,0.0010,0.9973,-0.0004,0.0016,-0.0004,1000,0.00,0.00
27617,0.58,0.0017,-0.0090,0.9834,-0.0031,-0.0052,0.0020,1000,0.00,0.00
27668,0.60,-0.0015,-0.0054,1.0081,-0.0053,0.0023,0.0061,1000,0.00,0.00
27719,0.63,-0.0015,-0.0042,0.9937,-0.0037,-0.0020,-0.0092,1000,0.00,0.00
27769,0.67,0.0012,-0.0061,0.9971,0.0017,-0.0025,0.0029,1000,0.00,0.00
27820,0.70,0.0046,-0.0027,0.9905,0.0040,0.0009,-0.0079,1000,0.00,0.00
27871,0.73,0.0005,0.0042,0.9915,-0.0012,0.0045,0.0065,1000,0.00,0.00
27922,0.77,0.0002,-0.0068,1.0039,-0.0001,-0.0029,-0.0021,1000,0.00,0.00
27972,0.80,0.0071,0.0093,0.9958,-0.0024,0.0008,-0.0053,1000,0.00,0.00
28023,0.84,0.0027,0.0115,0.9971,-0.0016,0.0000,0.0035,1000,0.00,0.00
28074,0.89,0.0015,-0.0073,0.9854,0.0029,-0.0001,0.0015,1000,0.00,0.00
28126,0.94,0.0012,-0.0061,1.0024,0.0049,0.0011,0.0019,1000,0.00,0.00
28177,0.98,-0.0044,-0.0007,0.9951,0.0059,-0.0007,0.0033,1000,0.00,0.00
28228,1.04,0.0493,-0.0386,1.0122,0.0096,0.0023,0.0357,1000,0.00,0.00
28279,1.07,-0.0208,0.0000,1.0120,-0.0020,-0.0087,-0.0181,1000,0.00,0.00
28329,1.10,-0.0010,0.0066,0.9875,-0.0036,0.0017,0.0212,1000,0.00,0.00
28380,1.13,0.0259,-0.0439,0.9568,0.0069,-0.0091,-0.0203,1000,0.00,0.00
28431,1.18,-0.0066,-0.0022,0.9751,0.0075,0.0020,-0.0040,1000,0.00,0.00
28482,1.22,-0.0234,0.0081,1.0073,0.0031,0.0031,0.0165,1000,0.00,0.00
28533,1.26,0.0144,0.0042,0.9915,0.0139,-0.0015,-0.0189,1000,0.00,0.00
28583,1.31,0.0095,0.0017,1.0068,-0.0017,-0.0001,0.0024,1000,0.00,0.00
28634,1.36,-0.0330,0.0051,0.9937,0.0016,0.0024,0.0164,1000,0.00,0.00
28685,1.42,-0.0559,0.0354,1.1318,0.0266,0.0027,-0.1014,1000,0.00,0.00
28736,1.44,0.0540,-0.0190,0.9556,-0.0165,-0.0031,0.0294,1000,0.00,0.00
28786,1.45,-0.0708,0.0356,0.9702,-0.0278,0.0024,0.0168,1000,0.00,0.00
28837,1.44,0.0342,-0.0444,0.9868,0.0302,-0.0047,-0.0341,1000,0.00,0.00
28888,1.43,0.0942,0.0837,0.9844,0.0298,0.0175,-0.0151,1000,0.00,0.00
28938,1.41,-0.0432,0.0374,0.9961,0.0036,-0.0028,0.0252,1000,0.00,0.00
28989,1.39,0.0330,0.0828,1.0005,-0.0552,-0.0441,0.0155,1000,0.00,0.00
29040,1.36,0.0625,-0.0156,1.0361,-0.0356,-0.0827,-0.0468,1000,0.00,0.00
29091,1.34,-0.1169,-0.0139,0.9690,-0.1484,-0.0222,0.2466,1000,0.00,0.00
29143,1.34,-0.0249,-0.0898,1.0679,-0.0830,-0.0073,0.4065,1000,0.00,0.00
29195,1.33,-0.0483,-0.0518,1.0698,-0.1164,-0.0151,0.3540,1000,0.00,0.00
29246,1.33,-0.0444,-0.0308,1.0554,-0.1094,-0.0221,0.2229,1000,0.00,0.00
29296,1.35,-0.0571,-0.0486,1.0652,-0.0775,-0.0448,0.0172,1000,0.00,0.00
29347,1.39,-0.0422,-0.0811,1.1089,-0.0204,-0.0131,-0.2471,1000,0.00,0.00
29398,1.38,-0.0588,-0.0269,1.0723,0.0440,-0.1547,-0.4687,1000,0.00,0.00
29449,1.35,-0.0732,-0.0398,1.0322,0.0929,-0.2265,-0.6115,1000,0.00,0.00
29499,1.32,-0.0664,0.0217,1.0112,0.0683,-0.2268,-0.5614,1000,0.00,0.00
29550,1.31,-0.0288,-0.0645,1.0583,0.1809,-0.1800,-0.3809,1000,0.00,0.00
29601,1.32,0.0022,-0.0657,1.0112,0.2025,-0.0237,-0.1951,1000,0.00,0.00
29652,1.33,-0.0334,0.0139,0.9170,0.1831,0.1720,0.0133,1000,0.00,0.00
29702,1.34,-0.0146,0.0525,0.9172,0.1296,0.2963,0.1649,1000,0.00,0.00
29753,1.34,-0.0581,0.0239,0.8831,0.0083,0.4108,0.2844,1000,0.00,0.00
29804,1.36,-0.0837,0.0220,0.8904,0.0176,0.3649,0.3396,1000,0.00,0.00
29855,1.37,-0.0132,0.0103,0.9360,0.0103,0.3000,0.3120,1000,0.00,0.00
29905,1.37,-0.0586,0.0840,0.8489,-0.0068,0.1968,0.1977,1000,0.00,0.00
29956,1.37,0.0493,0.0637,0.8777,-0.0553,0.1667,0.0252,1000,0.00,0.00
30007,1.36,-0.0195,-0.0305,0.8694,-0.0441,0.1780,-0.1729,1000,0.00,0.00
30058,1.38,-0.0415,-0.0129,0.8438,-0.0349,0.1235,-0.3413,1000,0.00,0.00
30108,1.40,0.0500,-0.0137,0.8411,0.0392,0.0674,-0.4944,1000,0.00,0.00
30160,1.41,0.0742,-0.0454,0.8611,0.1027,0.0405,-0.7925,1000,0.00,0.00
30211,1.40,0.0225,-0.0652,0.9563,0.2070,0.1144,-1.0593,1000,0.00,0.00
30262,1.41,0.0032,0.1628,1.1257,0.1078,-0.0787,-1.1718,1000,0.00,0.00
30313,1.41,0.0779,-0.0374,1.1885,0.0087,-0.0233,-1.1954,1000,0.00,0.00
30364,1.43,0.0103,0.1042,1.1528,-0.1306,-0.0512,-1.0977,1000,0.00,0.00
30414,1.45,0.0273,0.0059,0.9939,-0.2201,-0.2088,-0.8929,1000,0.00,0.00
30465,1.45,-0.0383,0.1226,1.0793,-0.3096,-0.2926,-0.6274,1000,0.00,0.00
30516,1.46,0.0339,0.0308,1.0305,-0.2727,-0.2611,-0.4206,1000,0.00,0.00
30567,1.47,0.1436,-0.5723,1.2988,-0.1952,-0.1005,-0.2044,1000,0.00,0.00
30617,1.49,0.0901,-0.0386,1.1853,0.3363,-0.0697,0.1603,1000,0.00,0.00
30668,1.51,-0.4607,0.1951,1.0447,0.3107,-0.1422,0.1284,1000,0.00,0.00
30719,1.54,-0.2080,0.1433,1.2217,0.3956,0.0973,0.0332,1000,0.00,0.00
30770,1.55,-0.1895,-0.0193,1.2007,0.0596,0.0195,0.1466,1000,0.00,0.00
30820,1.55,0.1128,0.0618,1.0022,-0.0983,-0.0075,0.0087,1000,0.00,0.00
30871,1.55,-0.0344,-0.0405,1.0928,-0.0385,-0.0163,0.0059,1000,0.00,0.00
30922,1.55,0.0654,-0.0452,1.0103,-0.0610,-0.0035,0.0115,1000,0.00,0.00
30973,1.55,0.0071,0.0583,0.9756,-0.0172,-0.0044,-0.0008,1000,0.00,0.00
31023,1.56,0.0337,-0.0251,1.0005,-0.0067,0.0049,-0.0044,1000,0.00,0.00
31074,1.56,-0.0593,0.0117,0.9924,0.0218,-0.0031,0.0029,1000,0.00,0.00
31125,1.55,-0.0005,0.0242,0.9893,-0.0104,0.0001,-0.0048,1000,0.00,0.00
31176,1.55,-0.0103,-0.0076,0.9985,-0.0024,0.0036,0.0071,1000,0.00,0.00
31228,1.53,-0.0012,-0.0117,1.0066,0.0017,-0.0003,-0.0073,1000,0.00,0.00
31279,1.51,0.0017,-0.0007,0.9983,0.0000,0.0001,0.0033,1000,0.00,0.00
31329,1.50,0.0044,-0.0049,0.9944,-0.0028,-0.0028,0.0016,1000,0.00,0.00
31380,1.50,-0.0117,-0.0044,0.9963,-0.0031,0.0023,0.0033,1000,0.00,0.00
31431,1.51,-0.0044,-0.0027,1.0073,0.0027,0.0037,0.0031,1000,0.00,0.00
31482,1.50,0.0173,-0.0063,0.9993,0.0024,0.0000,-0.0033,1000,0.00,0.00
31532,1.48,-0.0056,0.0049,1.0022,0.0008,0.0015,0.0051,1000,0.00,0.00
31583,1.46,-0.0044,-0.0090,0.9951,-0.0011,0.0004,-0.0036,1000,0.00,0.00
31634,1.45,0.0017,-0.0010,0.9937,0.0019,-0.0012,0.0017,1000,0.00,0.00
31685,1.44,0.0044,-0.0027,0.9980,0.0001,-0.0024,-0.0015,1000,0.00,0.00
31735,1.45,0.0037,-0.0012,1.0000,0.0008,0.0007,0.0037,1000,0.00,0.00
31786,1.45,-0.0034,-0.0083,0.9993,0.0013,-0.0003,-0.0043,1000,0.00,0.00
31837,1.48,0.0066,-0.0051,1.0015,0.0027,0.0008,0.0027,1000,0.00,0.00
31888,1.51,0.0034,-0.0056,1.0022,-0.0033,-0.0016,-0.0013,1000,0.00,0.00
31938,1.53,-0.0042,-0.0032,1.0024,0.0012,-0.0012,0.0005,1000,0.00,0.00
31989,1.54,0.0037,-0.0039,0.9922,-0.0008,0.0005,0.0027,1000,0.00,0.00
32040,1.56,0.0076,-0.0020,0.9875,0.0032,-0.0033,-0.0052,1000,0.00,0.00
32091,1.64,0.0032,-0.0017,1.0015,0.0000,-0.0008,0.0041,1000,0.00,0.00
32141,1.69,-0.0007,-0.0125,0.9988,0.0015,0.0007,-0.0048,1000,0.00,0.00
32193,1.73,0.0027,0.0007,1.0059,0.0029,-0.0015,0.0036,1000,0.00,0.00
32245,1.77,-0.0012,-0.0068,0.9961,0.0004,-0.0015,-0.0029,1000,0.00,0.00
32295,1.80,0.0071,-0.0132,0.9976,0.0024,0.0009,-0.0015,1000,0.00,0.00
32346,1.83,-0.0032,-0.0037,1.0051,0.0008,-0.0008,0.0019,1000,0.00,0.00
32397,1.84,0.0022,-0.0042,1.0078,0.0041,0.0004,0.0016,1000,0.00,0.00
32448,1.86,-0.0005,-0.0022,0.9966,0.0017,0.0015,0.0028,1000,0.00,0.00
32498,1.88,0.0017,-0.0083,0.9988,0.0011,0.0005,0.0004,1000,0.00,0.00
32549,1.92,0.0049,-0.0005,0.9958,-0.0021,0.0009,0.0003,1000,0.00,0.00
32600,1.92,-0.0044,-0.0034,0.9934,-0.0004,-0.0007,0.0012,1000,0.00,0.00
32651,1.91,0.0005,-0.0056,0.9961,-0.0007,0.0005,0.0027,1000,0.00,0.00
32701,1.89,-0.0005,-0.0015,0.9976,0.0036,0.0017,0.0003,1000,0.00,0.00
32752,1.90,-0.0022,-0.0044,0.9973,0.0025,0.0005,0.0028,1000,0.00,0.00
32803,1.91,-0.0027,-0.0010,0.9932,0.0015,0.0003,0.0009,1000,0.00,0.00
32853,1.89,0.0007,-0.0059,1.0012,0.0033,0.0013,0.0011,1000,0.00,0.00
32904,1.88,0.0012,-0.0068,1.0012,-0.0004,-0.0012,-0.0013,1000,0.00,0.00
32955,1.87,0.0037,-0.0059,0.9973,-0.0007,-0.0005,-0.0011,1000,0.00,0.00
33006,1.87,-0.0012,0.0007,1.0005,0.0003,0.0003,0.0013,1000,0.00,0.00
33056,1.86,0.0022,-0.0120,0.9944,0.0016,-0.0023,-0.0009,1000,0.00,0.00
33107,1.85,-0.0039,0.0015,0.9941,0.0027,-0.0004,0.0032,1000,0.00,0.00
33158,1.84,0.0027,-0.0029,0.9976,0.0033,0.0005,0.0015,1000,0.00,0.00
33210,1.85,0.0049,-0.0115,0.9983,0.0028,-0.0005,-0.0012,1000,0.00,0.00
33261,1.86,0.0007,-0.0081,1.0007,0.0019,-0.0021,0.0005,1000,0.00,0.00
33312,1.85,0.0032,-0.0112,0.9966,0.0012,0.0001,-0.0016,1000,0.00,0.00
33363,1.85,-0.0020,-0.0107,1.0007,-0.0001,0.0005,-0.0016,1000,0.00,0.00
33413,1.85,0.0081,-0.0024,0.9958,0.0000,0.0013,0.0024,1000,0.00,0.00
33464,1.88,-0.0020,-0.0005,0.9946,0.0008,-0.0019,0.0009,1000,0.00,0.00
33515,1.89,-0.0081,0.0063,1.0020,0.0017,0.0000,-0.0023,1000,0.00,0.00
33566,1.90,0.0146,-0.0156,0.9966,-0.0009,-0.0007,0.0019,1000,0.00,0.00
33616,1.91,-0.0046,-0.0015,1.0090,0.0021,0.0008,0.0004,1000,0.00,0.00
33667,1.92,0.0081,-0.0002,1.0100,-0.0004,-0.0001,-0.0024,1000,0.00,0.00
33718,1.94,-0.0005,-0.0005,1.0042,0.0003,-0.0016,0.0040,1000,0.00,0.00
33769,1.93,0.0037,-0.0054,1.0073,0.0009,0.0000,0.0001,1000,0.00,0.00
33819,1.93,0.0056,-0.0056,0.9937,0.0016,-0.0019,0.0000,1000,0.00,0.00
33870,1.94,0.0059,-0.0061,1.0002,0.0036,0.0003,-0.0013,1000,0.00,0.00
33921,1.94,0.0029,-0.0037,0.9973,0.0015,-0.0009,0.0021,1000,0.00,0.00
33972,1.94,-0.0029,-0.0022,0.9976,0.0000,0.0005,-0.0004,1000,0.00,0.00
34022,1.92,-0.0024,-0.0059,1.0076,-0.0007,-0.0009,0.0028,1000,0.00,0.00
34073,1.91,0.0071,-0.0061,0.9993,0.0011,0.0019,0.0001,1000,0.00,0.00
34124,1.93,-0.0005,-0.0076,1.0071,0.0011,0.0009,0.0020,1000,0.00,0.00
34175,1.96,-0.0020,-0.0049,1.0107,0.0048,0.0021,0.0067,1000,0.00,0.00
34226,1.96,-0.0029,-0.0002,0.9944,-0.0013,-0.0005,-0.0017,1000,0.00,0.00
34278,1.95,0.0049,-0.0073,1.0000,0.0024,0.0015,0.0009,1000,0.00,0.00
34329,1.96,0.0007,-0.0061,1.0032,0.0019,0.0013,0.0019,1000,0.00,0.00
34379,1.98,0.0022,-0.0034,0.9988,-0.0017,0.0019,0.0008,1000,0.00,0.00
34430,1.99,0.0022,-0.0093,1.0073,0.0037,0.0001,0.0021,1000,0.00,0.00
34481,2.00,0.0044,-0.0083,0.9976,-0.0009,-0.0016,0.0016,1000,0.00,0.00
34532,2.01,0.0056,-0.0071,1.0032,-0.0007,-0.0011,0.0027,1000,0.00,0.00
34582,2.03,-0.0054,-0.0129,0.9817,0.0031,0.0028,-0.0001,1000,0.00,0.00
34633,2.05,0.0051,-0.0027,1.0068,0.0017,-0.0032,0.0021,1000,0.00,0.00
34684,2.06,-0.0002,-0.0083,0.9980,0.0015,0.0008,-0.0003,1000,0.00,0.00
34735,2.08,0.0063,0.0005,0.9961,0.0028,0.0005,0.0001,1000,0.00,0.00
34785,2.08,-0.0037,-0.0037,0.9993,-0.0005,0.0027,0.0019,1000,0.00,0.00
34836,2.10,-0.0010,-0.0005,1.0042,0.0017,0.0007,-0.0009,1000,0.00,0.00
34887,2.10,-0.0002,-0.0007,0.9958,0.0027,-0.0004,-0.0011,1000,0.00,0.00
34938,2.11,-0.0039,-0.0015,1.0090,0.0028,-0.0003,0.0004,1000,0.00,0.00
34988,2.10,0.0034,-0.0054,0.9983,0.0009,0.0005,0.0013,1000,0.00,0.00
35039,2.11,0.0012,-0.0100,0.9956,-0.0009,-0.0001,-0.0008,1000,0.00,0.00
35090,2.10,-0.0029,0.0000,0.9980,0.0043,0.0001,0.0020,1000,0.00,0.00
35141,2.09,0.0037,-0.0071,0.9988,0.0007,0.0001,0.0000,1000,0.00,0.00
35191,2.09,0.0066,-0.0056,0.9893,-0.0004,-0.0013,0.0023,1000,0.00,0.00
35243,2.08,0.0020,-0.0015,1.0046,0.0021,0.0003,-0.0035,1000,0.00,0.00
35295,2.09,0.0010,-0.0078,0.9941,0.0017,-0.0003,-0.0005,1000,0.00,0.00
35345,2.09,-0.0024,-0.0093,0.9893,0.0009,0.0000,-0.0023,1000,0.00,0.00
35396,2.09,0.0066,0.0071,0.9941,0.0003,-0.0048,-0.0133,1000,0.00,0.00
35447,2.09,0.0046,-0.0134,0.9993,-0.0015,0.0011,0.0101,1000,0.00,0.00
35498,2.10,0.0032,-0.0073,0.9924,0.0029,-0.0008,-0.0019,1000,0.00,0.00
35548,2.12,0.0073,0.0000,1.0000,0.0019,-0.0009,0.0008,1000,0.00,0.00
35599,2.12,0.0046,-0.0088,0.9958,0.0007,-0.0017,0.0013,1000,0.00,0.00
35650,2.12,0.0046,-0.0068,0.9971,0.0043,0.0040,-0.0005,1000,0.00,0.00
35701,2.11,0.0015,-0.0085,0.9956,-0.0011,-0.0015,0.0016,1000,0.00,0.00
35751,2.11,-0.0125,0.0032,1.0029,0.0063,0.0032,0.0012,1000,0.00,0.00
35802,2.09,0.0073,-0.0039,0.9978,0.0011,0.0023,-0.0011,1000,0.00,0.00
35853,2.07,-0.0017,-0.0017,0.9988,-0.0013,0.0009,0.0033,1000,0.00,0.00
35904,2.05,-0.0037,-0.0112,1.0002,0.0024,-0.0025,-0.0017,1000,0.00,0.00
35954,2.07,0.0022,-0.0051,1.0015,0.0047,0.0016,0.0037,1000,0.00,0.00
36005,2.07,0.0061,-0.0090,1.0090,0.0031,0.0023,-0.0057,1000,0.00,0.00
36056,2.06,-0.0005,-0.0039,1.0063,0.0001,-0.0009,0.0017,1000,0.00,0.00
36107,2.05,-0.0005,-0.0015,1.0049,-0.0017,0.0009,-0.0012,1000,0.00,0.00
36157,2.05,0.0012,-0.0059,1.0039,0.0003,0.0009,-0.0012,1000,0.00,0.00
36208,2.07,-0.0408,0.0408,1.0022,0.0053,0.0023,-0.0084,1000,0.00,0.00
36260,2.05,0.0342,-0.0110,1.0017,-0.0077,-0.0011,-0.0143,1000,0.00,0.00
36311,2.04,-0.0024,-0.0261,0.9995,0.0028,0.0032,0.0215,1000,0.00,0.00
36362,2.02,0.0127,-0.0063,0.9998,0.0043,-0.0013,-0.0310,1000,0.00,0.00
36413,2.00,-0.0137,0.0039,0.9961,-0.0133,0.0028,0.0221,1000,0.00,0.00
36464,1.99,-0.0168,0.0237,0.9812,-0.0001,0.0009,-0.0109,1000,0.00,0.00
36514,1.96,0.0076,-0.0212,1.0032,-0.0039,0.0019,0.0100,1000,0.00,0.00
36565,1.94,-0.0020,-0.0059,1.0049,0.0068,0.0005,-0.0052,1000,0.00,0.00
36616,1.91,0.0029,0.0024,0.9880,0.0000,-0.0001,-0.0020,1000,0.00,0.00
36667,1.89,-0.0020,-0.0088,1.0010,-0.0015,-0.0023,0.0032,1000,0.00,0.00
36717,1.87,0.0076,-0.0066,0.9941,0.0027,-0.0011,-0.0013,1000,0.00,0.00
36768,1.84,-0.0042,-0.0032,1.0100,-0.0016,-0.0004,0.0035,1000,0.00,0.00
36819,1.82,0.0037,-0.0132,0.9998,0.0057,0.0033,-0.0021,1000,0.00,0.00
36870,1.79,-0.0166,-0.0066,1.0171,-0.0029,0.0039,-0.0007,1000,0.00,0.00
36920,1.77,-0.0376,0.0039,0.9976,-0.0008,0.0020,0.0056,1000,0.00,0.00
36971,1.74,0.0181,-0.0149,0.9941,0.0041,0.0009,-0.0093,1000,0.00,0.00
37022,1.72,0.0239,-0.0083,0.9753,-0.0160,0.0061,0.0382,1000,0.00,0.00
37073,1.71,-0.0066,-0.0247,1.0322,0.0084,-0.0019,-0.0173,1000,0.00,0.00
37123,1.71,-0.0017,0.0034,0.9971,0.0117,-0.0005,0.0092,1000,0.00,0.00
37174,1.70,0.0090,0.0088,0.9917,0.0020,0.0019,0.0008,1000,0.00,0.00
37225,1.69,0.0098,-0.0049,1.0083,0.0020,0.0032,0.0023,1000,0.00,0.00
37276,1.68,-0.0068,0.0039,1.0020,0.0011,0.0008,-0.0036,1000,0.00,0.00
37328,1.69,0.0039,-0.0081,0.9985,-0.0007,0.0003,0.0004,1000,0.00,0.00
37379,1.68,0.0007,-0.0095,1.0044,-0.0005,-0.0027,0.0024,1000,0.00,0.00
37429,1.66,0.0012,-0.0068,0.9978,0.0055,0.0000,0.0024,1000,0.00,0.00
37480,1.64,0.0037,0.0017,0.9985,0.0012,-0.0011,0.0003,1000,0.00,0.00
37531,1.64,0.0000,-0.0095,0.9907,-0.0003,0.0005,-0.0019,1000,0.00,0.00
37582,1.66,-0.0015,-0.0044,0.9910,0.0041,0.0029,0.0007,1000,0.00,0.00
37632,1.67,0.0029,-0.0088,0.9968,0.0012,-0.0015,-0.0011,1000,0.00,0.00
37683,1.68,0.0034,-0.0076,1.0034,0.0017,0.0003,-0.0007,1000,0.00,0.00
37734,1.67,-0.0039,-0.0046,0.9958,0.0041,-0.0019,0.0032,1000,0.00,0.00
37785,1.68,-0.0042,-0.0085,0.9973,0.0041,-0.0001,0.0023,1000,0.00,0.00
37835,1.68,-0.0063,-0.0073,0.9985,0.0017,0.0019,0.0024,1000,0.00,0.00
37886,1.67,0.0029,-0.0051,0.9946,0.0027,0.0001,0.0017,1000,0.00,0.00
37937,1.66,0.0044,-0.0078,0.9934,0.0017,-0.0013,-0.0004,1000,0.00,0.00
37988,1.66,-0.0056,-0.0059,1.0010,-0.0001,0.0004,0.0007,1000,0.00,0.00
38038,1.68,-0.0049,-0.0125,0.9961,0.0028,0.0005,0.0016,1000,0.00,0.00
38089,1.68,0.0012,-0.0012,0.9944,0.0009,0.0028,-0.0008,1000,0.00,0.00
38140,1.69,0.0046,-0.0093,1.0015,0.0004,-0.0007,0.0015,1000,0.00,0.00
38191,1.69,-0.0034,-0.0088,0.9939,0.0005,0.0025,0.0003,1000,0.00,0.00
38241,1.70,-0.0017,-0.0046,0.9910,0.0000,-0.0001,0.0015,1000,0.00,0.00
38293,1.70,0.0037,0.0002,0.9963,0.0019,0.0009,-0.0003,1000,0.00,0.00
38345,1.69,-0.0007,-0.0010,0.9941,0.0013,0.0008,0.0025,1000,0.00,0.00
38395,1.68,0.0032,-0.0115,1.0024,0.0016,0.0004,0.0021,1000,0.00,0.00
38446,1.69,0.0015,-0.0039,1.0044,-0.0009,-0.0004,0.0015,1000,0.00,0.00
38497,1.70,0.0027,-0.0137,0.9971,0.0017,0.0005,-0.0001,1000,0.00,0.00
38548,1.70,0.0005,-0.0120,1.0115,0.0005,-0.0016,-0.0008,1000,0.00,0.00
38598,1.70,-0.0010,-0.0122,1.0010,0.0005,0.0000,0.0001,1000,0.00,0.00
38649,1.70,0.0000,-0.0027,0.9978,0.0036,-0.0003,0.0019,1000,0.00,0.00
38700,1.70,-0.0012,0.0000,0.9963,-0.0004,-0.0024,0.0017,1000,0.00,0.00
38751,1.69,0.0063,0.0000,1.0107,0.0000,0.0019,-0.0023,1000,0.00,0.00
38801,1.67,0.0037,-0.0024,1.0059,-0.0012,0.0001,-0.0020,1000,0.00,0.00
38852,1.65,-0.0005,-0.0015,0.9980,0.0013,-0.0020,-0.0009,1000,0.00,0.00
38903,1.65,-0.0005,-0.0027,0.9929,0.0008,0.0011,0.0031,1000,0.00,0.00
38954,1.66,0.0044,-0.0034,0.9956,0.0045,0.0005,0.0027,1000,0.00,0.00
39004,1.66,-0.0010,-0.0039,1.0027,-0.0008,0.0011,0.0011,1000,0.00,0.00
39055,1.66,-0.0020,0.0044,1.0039,0.0019,-0.0011,0.0001,1000,0.00,0.00
39106,1.67,0.0042,-0.0012,0.9941,0.0023,-0.0015,-0.0009,1000,0.00,0.00
39157,1.68,0.0017,-0.0061,0.9946,0.0016,0.0004,0.0016,1000,0.00,0.00
39207,1.68,0.0020,-0.0044,0.9951,0.0011,0.0011,-0.0020,1000,0.00,0.00
39258,1.69,-0.0002,-0.0088,0.9978,0.0027,-0.0019,0.0009,1000,0.00,0.00
39310,1.70,-0.0049,-0.0112,0.9944,0.0023,0.0029,0.0017,1000,0.00,0.00
39361,1.72,0.0020,-0.0039,1.0029,0.0024,-0.0052,-0.0024,1000,0.00,0.00
39412,1.74,-0.0007,0.0020,0.9934,0.0024,0.0012,-0.0021,1000,0.00,0.00
39463,1.75,-0.0015,-0.0054,1.0005,-0.0008,0.0004,-0.0007,1000,0.00,0.00
39513,1.76,-0.0034,-0.0132,1.0017,0.0023,0.0005,0.0003,1000,0.00,0.00
39564,1.77,-0.0024,-0.0081,1.0071,0.0023,0.0031,0.0000,1000,0.00,0.00
39615,1.77,0.0049,-0.0083,1.0044,0.0025,0.0011,-0.0008,1000,0.00,0.00
39666,1.77,0.0032,-0.0061,1.0017,0.0019,-0.0019,-0.0004,1000,0.00,0.00
39716,1.79,0.0032,-0.0015,0.9934,0.0023,-0.0013,0.0001,1000,0.00,0.00
39767,1.80,0.0078,-0.0051,1.0020,-0.0004,0.0019,0.0008,1000,0.00,0.00
39818,1.81,0.0022,-0.0012,1.0012,0.0012,0.0019,-0.0031,1000,0.00,0.00
39869,1.81,-0.0032,0.0012,0.9905,0.0027,0.0004,0.0023,1000,0.00,0.00
39919,1.80,0.0093,-0.0115,0.9995,0.0029,0.0025,0.0024,1000,0.00,0.00
39970,1.79,0.0002,-0.0093,0.9973,0.0015,0.0000,0.0005,1000,0.00,0.00
40021,1.79,0.0002,-0.0051,1.0010,0.0024,-0.0009,0.0001,1000,0.00,0.00
40072,1.81,0.0010,-0.0051,1.0034,0.0005,0.0012,0.0004,1000,0.00,0.00
40122,1.81,0.0051,-0.0073,0.9946,0.0019,0.0000,-0.0008,1000,0.00,0.00
40173,1.83,0.0017,-0.0054,0.9866,-0.0001,0.0015,-0.0019,1000,0.00,0.00
40224,1.85,-0.0017,0.0005,0.9988,0.0021,-0.0007,0.0020,1000,0.00,0.00
40275,1.86,0.0005,-0.0066,0.9949,0.0033,-0.0015,0.0024,1000,0.00,0.00
40326,1.87,0.0059,-0.0044,0.9990,0.0017,0.0007,0.0028,1000,0.00,0.00
40378,1.87,-0.0007,-0.0051,0.9971,0.0008,0.0001,-0.0007,1000,0.00,0.00
40429,1.87,-0.0029,0.0027,0.9983,0.0012,0.0011,-0.0007,1000,0.00,0.00
40479,1.86,0.0005,-0.0100,1.0049,0.0024,0.0013,-0.0011,1000,0.00,0.00
40530,1.88,0.0076,-0.0063,0.9954,0.0021,-0.0015,0.0011,1000,0.00,0.00
40581,1.88,0.0066,-0.0027,1.0056,0.0005,-0.0012,0.0024,1000,0.00,0.00
40632,1.90,0.0051,-0.0049,1.0049,-0.0013,-0.0007,-0.0007,1000,0.00,0.00
40682,1.91,0.0024,-0.0024,1.0017,-0.0004,-0.0020,-0.0031,1000,0.00,0.00
40733,1.92,0.0012,-0.0059,1.0051,0.0029,0.0024,0.0001,1000,0.00,0.00
40784,1.92,0.0090,0.0010,0.9998,0.0001,0.0015,0.0009,1000,0.00,0.00
40835,1.91,0.0059,-0.0066,1.0039,0.0007,0.0023,0.0008,1000,0.00,0.00
40885,1.89,0.0017,-0.0088,0.9919,0.0021,0.0007,0.0004,1000,0.00,0.00
40936,1.89,-0.0010,-0.0078,0.9956,0.0020,-0.0028,0.0005,1000,0.00,0.00
40987,1.89,0.0024,-0.0083,0.9878,0.0008,-0.0020,0.0013,1000,0.00,0.00
41038,1.89,0.0012,-0.0027,1.0039,0.0024,0.0009,0.0005,1000,0.00,0.00
41088,1.88,0.0034,-0.0022,1.0056,0.0008,-0.0021,0.0011,1000,0.00,0.00
41139,1.87,-0.0012,-0.0007,1.0000,-0.0001,0.0012,-0.0005,1000,0.00,0.00
41190,1.87,0.0020,-0.0024,1.0032,0.0000,0.0016,-0.0004,1000,0.00,0.00
41241,1.87,0.0007,-0.0044,0.9990,0.0040,0.0004,0.0012,1000,0.00,0.00
41291,1.86,0.0046,-0.0042,1.0068,0.0023,-0.0012,-0.0032,1000,0.00,0.00
41343,1.85,-0.0015,-0.0083,1.0034,0.0021,-0.0004,0.0027,1000,0.00,0.00
41394,1.85,0.0066,-0.0046,0.9937,0.0033,-0.0016,0.0024,1000,0.00,0.00
41445,1.85,0.0029,-0.0073,0.9966,0.0001,-0.0008,-0.0001,1000,0.00,0.00
41496,1.85,0.0022,-0.0027,0.9978,0.0015,0.0020,0.0011,1000,0.00,0.00
41547,1.84,-0.0005,-0.0017,0.9963,0.0011,0.0016,0.0020,1000,0.00,0.00
41597,1.82,0.0002,-0.0042,0.9937,-0.0023,0.0011,-0.0023,1000,0.00,0.00
41648,1.84,0.0056,-0.0024,0.9988,0.0015,0.0016,-0.0032,1000,0.00,0.00
41699,1.85,0.0000,-0.0032,0.9875,0.0007,0.0000,-0.0009,1000,0.00,0.00
41750,1.85,-0.0010,-0.0042,0.9956,0.0025,0.0003,-0.0003,1000,0.00,0.00
41800,1.85,0.0007,-0.0056,1.0039,0.0008,0.0004,-0.0028,1000,0.00,0.00
41851,1.85,-0.0042,-0.0029,1.0022,0.0043,-0.0013,0.0001,1000,0.00,0.00
41902,1.86,0.0076,0.0015,1.0039,0.0043,0.0016,0.0016,1000,0.00,0.00
41953,1.85,0.0051,-0.0039,0.9985,0.0032,0.0011,-0.0013,1000,0.00,0.00
42003,1.85,0.0012,-0.0132,1.0076,0.0007,0.0015,0.0003,1000,0.00,0.00
42054,1.84,0.0061,-0.0073,1.0068,-0.0007,-0.0005,0.0017,1000,0.00,0.00
42105,1.84,0.0032,-0.0054,0.9976,0.0013,-0.0011,0.0000,1000,0.00,0.00
42156,1.84,-0.0044,-0.0115,1.0000,0.0015,0.0021,0.0027,1000,0.00,0.00
42206,1.84,0.0049,-0.0039,0.9990,0.0027,0.0024,0.0013,1000,0.00,0.00
42257,1.83,0.0015,-0.0054,0.9851,-0.0011,-0.0019,0.0007,1000,0.00,0.00
42308,1.83,-0.0015,-0.0085,0.9885,-0.0004,0.0012,0.0004,1000,0.00,0.00
42360,1.84,0.0081,-0.0081,1.0020,0.0013,0.0025,0.0008,1000,0.00,0.00
42411,1.84,0.0024,-0.0022,1.0024,0.0045,0.0003,0.0003,1000,0.00,0.00
42462,1.84,0.0027,-0.0068,0.9956,0.0044,0.0011,-0.0005,1000,0.00,0.00
42513,1.83,-0.0024,0.0002,1.0044,0.0020,-0.0013,-0.0011,1000,0.00,0.00
42563,1.84,0.0000,-0.0090,0.9978,0.0051,-0.0017,0.0025,1000,0.00,0.00
42614,1.85,0.0032,-0.0022,0.9963,0.0007,0.0008,0.0012,1000,0.00,0.00
42665,1.84,-0.0020,-0.0061,1.0032,0.0001,-0.0008,0.0019,1000,0.00,0.00
42716,1.83,-0.0039,-0.0034,1.0044,0.0013,-0.0012,0.0003,1000,0.00,0.00
42766,1.84,0.0068,-0.0073,1.0022,0.0031,0.0023,0.0009,1000,0.00,0.00
42817,1.84,-0.0002,-0.0093,1.0063,0.0027,-0.0024,0.0016,1000,0.00,0.00
42868,1.85,-0.0015,-0.0068,0.9976,0.0000,-0.0016,0.0027,1000,0.00,0.00
42919,1.86,0.0054,-0.0027,0.9983,0.0005,-0.0020,0.0025,1000,0.00,0.00
42969,1.87,0.0044,-0.0051,1.0032,0.0037,-0.0015,0.0001,1000,0.00,0.00
43020,1.88,0.0063,0.0022,0.9949,0.0012,0.0004,0.0012,1000,0.00,0.00
43071,1.89,0.0037,-0.0105,1.0010,0.0012,0.0012,0.0020,1000,0.00,0.00
43122,1.88,-0.0002,0.0002,1.0022,0.0017,0.0019,0.0020,1000,0.00,0.00
43172,1.86,-0.0015,-0.0039,1.0049,0.0024,0.0008,-0.0013,1000,0.00,0.00
43223,1.85,0.0046,-0.0037,0.9971,0.0007,0.0000,0.0015,1000,0.00,0.00
43274,1.85,0.0046,-0.0068,1.0000,0.0028,0.0005,0.0019,1000,0.00,0.00
43325,1.85,0.0059,-0.0081,1.0000,0.0017,0.0005,-0.0023,1000,0.00,0.00
43376,1.85,0.0056,-0.0073,0.9995,0.0023,0.0000,-0.0012,1000,0.00,0.00
43428,1.85,-0.0010,-0.0059,0.9968,0.0025,0.0020,0.0019,1000,0.00,0.00
43478,1.87,0.0044,-0.0020,0.9924,0.0005,-0.0011,0.0008,1000,0.00,0.00
43529,1.87,-0.0005,-0.0046,0.9927,0.0020,0.0011,0.0012,1000,0.00,0.00
43580,1.87,-0.0039,-0.0059,1.0054,0.0021,0.0000,0.0008,1000,0.00,0.00
43631,1.86,0.0039,-0.0042,1.0076,0.0015,0.0011,0.0008,1000,0.00,0.00
43681,1.86,-0.0022,-0.0105,1.0032,0.0023,-0.0003,-0.0008,1000,0.00,0.00
43732,1.87,0.0015,-0.0034,1.0051,0.0024,0.0008,0.0005,1000,0.00,0.00
43783,1.86,0.0002,-0.0017,0.9885,0.0007,0.0003,-0.0003,1000,0.00,0.00
43834,1.85,-0.0034,-0.0046,0.9980,0.0017,0.0011,0.0009,1000,0.00,0.00
43884,1.84,0.0007,-0.0059,1.0078,0.0015,-0.0016,0.0007,1000,0.00,0.00
43935,1.86,0.0012,-0.0029,0.9927,-0.0023,0.0023,-0.0007,1000,0.00,0.00
43986,1.85,0.0005,-0.0076,1.0032,0.0024,0.0009,0.0020,1000,0.00,0.00
44037,1.83,0.0010,-0.0061,1.0139,0.0008,-0.0008,-0.0016,1000,0.00,0.00
44087,1.82,0.0007,-0.0056,1.0049,0.0027,0.0036,0.0013,1000,0.00,0.00
44138,1.81,-0.0017,-0.0110,1.0034,0.0041,0.0001,0.0003,1000,0.00,0.00
44189,1.81,0.0020,-0.0034,0.9954,0.0025,0.0000,-0.0021,1000,0.00,0.00
44240,1.80,0.0022,-0.0066,1.0002,0.0007,-0.0007,0.0012,1000,0.00,0.00
44290,1.80,0.0044,-0.0039,1.0027,0.0004,-0.0009,-0.0001,1000,0.00,0.00
44341,1.78,0.0024,-0.0037,0.9980,0.0027,0.0029,0.0012,1000,0.00,0.00
44393,1.79,0.0042,-0.0029,0.9980,-0.0013,0.0008,0.0011,1000,0.00,0.00
44444,1.77,0.0071,-0.0056,1.0005,0.0009,-0.0001,-0.0003,1000,0.00,0.00
44495,1.77,-0.0017,-0.0024,0.9985,0.0016,0.0011,-0.0005,1000,0.00,0.00
44546,1.76,0.0037,-0.0049,0.9980,0.0041,-0.0003,0.0009,1000,0.00,0.00
44596,1.77,0.0017,-0.0093,1.0073,-0.0008,0.0016,0.0008,1000,0.00,0.00
44647,1.77,0.0032,-0.0061,1.0044,0.0020,-0.0013,0.0004,1000,0.00,0.00
44698,1.76,-0.0012,-0.0081,0.9951,0.0009,-0.0007,0.0000,1000,0.00,0.00
44749,1.75,-0.0020,-0.0042,0.9883,0.0007,-0.0015,-0.0021,1000,0.00,0.00
44799,1.74,0.0020,-0.0068,0.9998,0.0023,0.0019,0.0035,1000,0.00,0.00
44850,1.76,0.0061,-0.0073,0.9966,-0.0013,-0.0005,0.0013,1000,0.00,0.00
44901,1.75,-0.0044,-0.0054,0.9995,0.0005,0.0013,-0.0011,1000,0.00,0.00
44952,1.74,0.0037,0.0007,0.9968,0.0023,0.0000,0.0029,1000,0.00,0.00
45002,1.73,-0.0029,-0.0071,0.9949,0.0031,0.0003,0.0023,1000,0.00,0.00
45053,1.74,0.0017,-0.0042,1.0120,-0.0001,-0.0012,0.0027,1000,0.00,0.00
45104,1.74,-0.0012,-0.0054,1.0002,-0.0007,0.0009,-0.0021,1000,0.00,0.00
45155,1.74,-0.0029,-0.0020,0.9956,0.0004,0.0016,-0.0016,1000,0.00,0.00
45205,1.74,-0.0017,-0.0022,0.9937,0.0009,0.0012,-0.0025,1000,0.00,0.00
45256,1.74,0.0037,-0.0068,0.9890,0.0001,0.0001,0.0007,1000,0.00,0.00
45307,1.74,-0.0007,-0.0081,1.0037,0.0032,-0.0004,0.0009,1000,0.00,0.00
45358,1.73,0.0042,-0.0020,1.0007,-0.0005,0.0015,0.0012,1000,0.00,0.00
45409,1.72,-0.0015,-0.0010,1.0039,0.0027,0.0003,-0.0011,1000,0.00,0.00
45461,1.70,0.0000,-0.0005,0.9871,0.0025,-0.0019,0.0017,1000,0.00,0.00
45512,1.69,0.0002,-0.0078,1.0029,0.0020,-0.0001,0.0020,1000,0.00,0.00
45562,1.69,-0.0010,-0.0095,0.9954,0.0031,0.0013,0.0023,1000,0.00,0.00
45613,1.68,0.0027,-0.0042,1.0032,0.0005,0.0012,0.0019,1000,0.00,0.00
45664,1.67,0.0017,-0.0076,1.0000,0.0016,0.0000,0.0015,1000,0.00,0.00
45715,1.65,0.0002,0.0010,1.0029,0.0016,-0.0024,0.0003,1000,0.00,0.00
45765,1.65,0.0054,-0.0071,0.9966,0.0041,0.0007,0.0025,1000,0.00,0.00
45816,1.63,0.0027,-0.0042,1.0010,0.0013,-0.0023,-0.0028,1000,0.00,0.00
45867,1.62,-0.0022,-0.0046,0.9995,-0.0012,0.0017,-0.0004,1000,0.00,0.00
45918,1.60,0.0076,-0.0061,1.0002,0.0007,0.0003,-0.0020,1000,0.00,0.00
45968,1.60,-0.0005,-0.0010,0.9980,-0.0011,0.0000,0.0016,1000,0.00,0.00
46019,1.60,0.0061,-0.0056,0.9976,0.0023,-0.0003,0.0008,1000,0.00,0.00
46070,1.60,0.0027,-0.0105,0.9998,-0.0012,-0.0007,0.0011,1000,0.00,0.00
46121,1.60,0.0056,-0.0007,0.9919,0.0013,-0.0019,0.0023,1000,0.00,0.00
46171,1.59,0.0002,-0.0010,1.0005,0.0024,-0.0009,-0.0023,1000,0.00,0.00
46222,1.60,-0.0015,-0.0051,0.9978,0.0003,-0.0036,0.0035,1000,0.00,0.00
46273,1.60,-0.0032,-0.0071,1.0010,0.0027,0.0012,-0.0001,1000,0.00,0.00
46324,1.59,-0.0002,-0.0027,0.9988,0.0025,0.0003,0.0001,1000,0.00,0.00
46374,1.59,-0.0022,-0.0088,1.0027,0.0047,0.0025,0.0023,1000,0.00,0.00
46426,1.61,0.0020,-0.0066,0.9905,0.0011,-0.0013,-0.0008,1000,0.00,0.00
46478,1.62,-0.0005,-0.0059,1.0007,0.0015,0.0013,0.0029,1000,0.00,0.00
46529,1.61,0.0020,-0.0088,0.9932,0.0004,0.0003,0.0015,1000,0.00,0.00
46579,1.61,0.0066,-0.0093,1.0061,-0.0004,0.0016,0.0008,1000,0.00,0.00
46630,1.61,0.0027,-0.0012,1.0002,0.0048,0.0008,0.0015,1000,0.00,0.00
46681,1.63,0.0085,-0.0054,0.9963,0.0000,0.0011,0.0015,1000,0.00,0.00
46732,1.62,0.0029,-0.0115,0.9963,0.0011,-0.0019,-0.0004,1000,0.00,0.00
46782,1.61,0.0027,-0.0015,1.0012,0.0040,0.0005,-0.0007,1000,0.00,0.00
46833,1.60,0.0044,-0.0034,1.0002,0.0023,0.0020,-0.0021,1000,0.00,0.00
46884,1.61,-0.0020,-0.0022,0.9983,0.0013,-0.0008,-0.0008,1000,0.00,0.00
46935,1.61,0.0029,-0.0071,0.9922,0.0019,0.0001,0.0012,1000,0.00,0.00
46985,1.60,0.0017,0.0005,1.0027,0.0037,0.0017,0.0017,1000,0.00,0.00
47036,1.59,0.0037,-0.0068,1.0076,0.0020,-0.0007,-0.0001,1000,0.00,0.00
47087,1.59,0.0056,-0.0020,0.9971,0.0028,0.0015,0.0021,1000,0.00,0.00
47138,1.59,-0.0032,-0.0059,1.0090,-0.0008,-0.0019,0.0007,1000,0.00,0.00
47188,1.59,0.0056,-0.0032,0.9980,-0.0016,0.0009,-0.0017,1000,0.00,0.00
47239,1.59,0.0034,-0.0081,0.9946,0.0004,-0.0012,0.0000,1000,0.00,0.00
47290,1.59,-0.0015,-0.0017,1.0010,-0.0008,0.0001,0.0005,1000,0.00,0.00
47341,1.61,0.0032,-0.0022,1.0027,-0.0003,0.0019,0.0001,1000,0.00,0.00
47391,1.62,0.0007,-0.0076,0.9917,0.0015,0.0032,0.0015,1000,0.00,0.00
47443,1.63,0.0044,-0.0059,1.0068,0.0003,0.0011,0.0013,1000,0.00,0.00
47495,1.63,0.0046,-0.0020,1.0027,0.0011,0.0015,0.0001,1000,0.00,0.00
47545,1.62,0.0049,-0.0020,1.0029,0.0028,0.0019,0.0012,1000,0.00,0.00
47596,1.64,0.0015,-0.0088,0.9971,-0.0001,0.0008,-0.0009,1000,0.00,0.00
47647,1.64,0.0015,0.0012,1.0034,0.0036,0.0029,0.0008,1000,0.00,0.00
47698,1.64,0.0046,-0.0100,0.9978,0.0001,0.0023,0.0012,1000,0.00,0.00
47748,1.64,-0.0034,-0.0046,0.9949,0.0009,-0.0003,-0.0011,1000,0.00,0.00
47799,1.65,-0.0042,-0.0049,0.9980,0.0008,0.0003,0.0019,1000,0.00,0.00
47850,1.66,0.0017,-0.0022,0.9912,0.0008,0.0028,-0.0005,1000,0.00,0.00
47901,1.66,0.0012,-0.0063,0.9978,0.0003,-0.0004,-0.0021,1000,0.00,0.00
47951,1.66,0.0032,-0.0120,1.0020,0.0021,0.0007,0.0008,1000,0.00,0.00
48002,1.65,-0.0007,-0.0015,0.9980,-0.0003,-0.0001,0.0040,1000,0.00,0.00
48053,1.66,0.0005,-0.0034,1.0010,0.0016,0.0021,0.0029,1000,0.00,0.00
48104,1.65,0.0037,-0.0010,1.0039,0.0039,-0.0011,-0.0001,1000,0.00,0.00
48154,1.65,-0.0029,-0.0020,0.9922,-0.0020,-0.0001,-0.0008,1000,0.00,0.00
48205,1.64,-0.0005,-0.0032,0.9949,0.0036,-0.0007,-0.0017,1000,0.00,0.00
48256,1.65,0.0020,-0.0071,0.9941,-0.0008,0.0008,0.0007,1000,0.00,0.00
48307,1.66,0.0037,-0.0054,0.9941,0.0037,-0.0020,-0.0005,1000,0.00,0.00
48357,1.66,0.0027,-0.0015,1.0017,0.0028,-0.0011,0.0008,1000,0.00,0.00
48408,1.66,0.0042,-0.0022,0.9939,0.0025,0.0020,-0.0003,1000,0.00,0.00
48460,1.66,0.0046,-0.0059,1.0012,0.0037,0.0023,0.0025,1000,0.00,0.00
48511,1.67,0.0017,-0.0037,0.9917,0.0003,0.0009,-0.0001,1000,0.00,0.00
48562,1.66,0.0066,-0.0059,1.0029,0.0047,-0.0009,-0.0003,1000,0.00,0.00
48613,1.66,-0.0015,-0.0022,1.0044,0.0020,0.0012,0.0020,1000,0.00,0.00
48663,1.66,0.0027,-0.0022,0.9958,0.0033,-0.0007,0.0016,1000,0.00,0.00
48714,1.67,-0.0010,-0.0090,0.9932,0.0013,0.0001,-0.0011,1000,0.00,0.00
48765,1.66,0.0034,-0.0044,0.9880,0.0009,0.0003,-0.0012,1000,0.00,0.00
48816,1.64,-0.0022,-0.0059,0.9951,-0.0001,0.0007,-0.0011,1000,0.00,0.00
48866,1.62,0.0034,-0.0090,1.0017,0.0037,0.0036,0.0015,1000,0.00,0.00
48917,1.62,0.0024,-0.0042,0.9973,0.0021,0.0000,0.0001,1000,0.00,0.00
48968,1.62,0.0000,-0.0093,0.9973,0.0005,0.0005,-0.0001,1000,0.00,0.00
49019,1.60,0.0012,-0.0059,1.0002,0.0013,-0.0009,0.0007,1000,0.00,0.00
49069,1.58,-0.0046,-0.0068,1.0066,-0.0021,0.0008,-0.0023,1000,0.00,0.00
49120,1.58,-0.0029,-0.0029,0.9998,0.0043,-0.0007,0.0013,1000,0.00,0.00
49171,1.60,0.0027,-0.0005,0.9976,0.0032,-0.0016,0.0012,1000,0.00,0.00
49222,1.61,-0.0002,-0.0073,0.9922,0.0033,0.0013,0.0035,1000,0.00,0.00
49272,1.61,0.0051,-0.0078,0.9990,0.0013,0.0031,-0.0001,1000,0.00,0.00
49323,1.61,0.0037,-0.0054,1.0039,0.0015,0.0005,0.0015,1000,0.00,0.00
49374,1.62,0.0010,-0.0071,0.9951,0.0005,-0.0015,0.0008,1000,0.00,0.00
49425,1.64,-0.0017,-0.0051,1.0061,0.0029,0.0015,0.0017,1000,0.00,0.00
49476,1.64,0.0000,-0.0061,1.0000,0.0017,0.0016,0.0019,1000,0.00,0.00
49528,1.64,0.0073,-0.0073,0.9993,0.0011,0.0001,0.0047,1000,0.00,0.00
49579,1.63,0.0042,0.0005,0.9954,-0.0015,-0.0008,-0.0004,1000,0.00,0.00
49629,1.63,0.0037,-0.0059,1.0000,0.0019,0.0016,0.0020,1000,0.00,0.00
49680,1.63,-0.0012,-0.0090,1.0020,0.0008,0.0009,-0.0023,1000,0.00,0.00
49731,1.64,-0.0010,-0.0020,1.0000,0.0012,0.0020,0.0007,1000,0.00,0.00
49782,1.64,0.0010,-0.0015,0.9910,0.0011,0.0017,0.0025,1000,0.00,0.00
49832,1.64,-0.0010,-0.0051,1.0024,0.0036,-0.0015,0.0013,1000,0.00,0.00
49883,1.65,-0.0071,-0.0076,1.0027,0.0024,-0.0008,-0.0005,1000,0.00,0.00
49934,1.65,-0.0022,-0.0078,1.0012,0.0015,-0.0023,0.0011,1000,0.00,0.00
49985,1.64,0.0032,0.0020,1.0044,0.0036,-0.0025,0.0000,1000,0.00,0.00
50035,1.63,-0.0049,-0.0034,1.0015,0.0012,0.0007,0.0017,1000,0.00,0.00
50086,1.63,-0.0002,-0.0068,0.9934,0.0007,0.0032,0.0023,1000,0.00,0.00
50137,1.63,0.0034,0.0012,0.9988,0.0020,0.0005,-0.0009,1000,0.00,0.00
50188,1.63,0.0020,-0.0022,1.0046,0.0012,-0.0015,-0.0005,1000,0.00,0.00
50238,1.62,-0.0015,0.0000,1.0010,0.0009,0.0025,0.0007,1000,0.00,0.00
50289,1.62,0.0034,-0.0056,0.9900,0.0027,-0.0020,0.0009,1000,0.00,0.00
50340,1.62,0.0027,-0.0137,1.0002,0.0021,-0.0016,0.0005,1000,0.00,0.00
50391,1.62,0.0046,-0.0032,0.9944,0.0000,-0.0020,-0.0001,1000,0.00,0.00
50441,1.62,0.0017,-0.0024,0.9976,0.0016,0.0007,0.0020,1000,0.00,0.00
50493,1.63,0.0012,-0.0056,0.9966,0.0008,0.0011,-0.0019,1000,0.00,0.00
50545,1.65,0.0007,-0.0063,1.0015,0.0021,-0.0021,0.0004,1000,0.00,0.00
50595,1.66,0.0000,-0.0051,0.9968,-0.0008,0.0005,0.0020,1000,0.00,0.00
50646,1.66,0.0005,-0.0110,0.9998,0.0013,-0.0004,-0.0003,1000,0.00,0.00
50697,1.67,0.0005,-0.0134,1.0022,-0.0019,-0.0047,0.0007,1000,0.00,0.00
50748,1.68,0.0059,-0.0081,0.9929,0.0025,-0.0032,-0.0027,1000,0.00,0.00
50798,1.69,0.0037,0.0012,0.9966,0.0025,-0.0031,-0.0020,1000,0.00,0.00
50849,1.69,-0.0002,-0.0093,1.0071,0.0031,0.0005,0.0063,1000,0.00,0.00
50900,1.69,0.0054,0.0188,0.9922,-0.0025,-0.0047,-0.0047,1000,0.00,0.00
50951,1.70,0.0007,-0.0210,0.9819,-0.0005,-0.0028,0.0037,1000,0.00,0.00
51001,1.71,-0.0049,-0.0024,0.9922,0.0052,-0.0023,-0.0004,1000,0.00,0.00
51052,1.72,0.0095,-0.0015,1.0000,-0.0008,0.0007,-0.0013,1000,0.00,0.00
51103,1.72,-0.0054,-0.0088,0.9990,0.0015,-0.0016,0.0019,1000,0.00,0.00
51154,1.71,0.0044,-0.0015,1.0010,0.0025,-0.0020,-0.0045,1000,0.00,0.00
51204,1.69,-0.0007,-0.0027,1.0066,-0.0015,0.0000,0.0016,1000,0.00,0.00
51255,1.65,0.0007,-0.0071,0.9958,0.0004,-0.0009,-0.0036,1000,0.00,0.00
51306,1.61,0.0215,-0.0103,1.0068,0.0019,0.0011,0.0031,1000,0.00,0.00
51357,1.58,-0.0010,0.0000,1.0034,0.0024,0.0008,0.0004,1000,0.00,0.00
51407,1.57,0.0005,-0.0076,0.9978,-0.0024,0.0004,0.0013,1000,0.00,0.00
51458,1.58,-0.0017,0.0015,1.0034,-0.0012,0.0029,0.0040,1000,0.00,0.00
51510,1.59,0.0076,-0.0083,0.9985,-0.0004,-0.0008,-0.0036,1000,0.00,0.00
51561,1.59,-0.0071,-0.0100,1.0022,0.0029,0.0019,0.0012,1000,0.00,0.00
51612,1.60,0.0039,-0.0007,1.0012,0.0001,-0.0003,-0.0009,1000,0.00,0.00
51663,1.60,-0.0022,-0.0010,0.9944,0.0028,0.0003,0.0033,1000,0.00,0.00
51713,1.61,0.0100,-0.0051,1.0061,0.0011,0.0023,0.0019,1000,0.00,0.00
51764,1.61,0.0056,-0.0105,1.0061,0.0029,0.0024,0.0033,1000,0.00,0.00
51815,1.60,0.0007,-0.0005,0.9861,0.0024,0.0020,0.0031,1000,0.00,0.00
51866,1.61,0.0034,-0.0081,0.9968,0.0012,0.0029,-0.0004,1000,0.00,0.00
51917,1.65,0.0039,-0.0068,0.9934,0.0013,-0.0032,0.0029,1000,0.00,0.00
51967,1.70,0.0051,-0.0056,1.0056,0.0029,-0.0004,0.0004,1000,0.00,0.00
52018,1.74,0.0046,0.0000,0.9961,0.0025,-0.0029,-0.0021,1000,0.00,0.00
52069,1.78,0.0078,-0.0017,1.0027,0.0008,-0.0016,-0.0008,1000,0.00,0.00
52120,1.83,-0.0010,-0.0044,0.9951,0.0031,-0.0012,-0.0003,1000,0.00,0.00
52170,1.88,-0.0090,-0.0132,0.9978,0.0032,-0.0020,0.0027,1000,0.00,0.00
52221,1.90,0.0002,-0.0022,0.9927,0.0032,0.0003,-0.0003,1000,0.00,0.00
52272,1.92,0.0093,-0.0027,1.0059,-0.0004,-0.0036,-0.0003,1000,0.00,0.00
52323,1.93,-0.0010,-0.0046,1.0039,0.0011,0.0017,0.0027,1000,0.00,0.00
52373,1.95,0.0000,-0.0073,0.9961,0.0025,0.0040,-0.0011,1000,0.00,0.00
52424,1.96,0.0039,-0.0100,0.9993,0.0012,0.0004,0.0003,1000,0.00,0.00
52475,1.96,-0.0051,-0.0046,0.9973,0.0013,0.0005,0.0001,1000,0.00,0.00
52528,1.96,0.0076,-0.0007,1.0007,0.0023,0.0008,0.0023,1000,0.00,0.00
52579,1.96,-0.0015,-0.0017,0.9985,0.0003,0.0005,-0.0015,1000,0.00,0.00
52630,1.97,0.0012,-0.0107,0.9888,0.0009,0.0008,0.0008,1000,0.00,0.00
52681,1.99,0.0046,-0.0076,0.9934,0.0040,-0.0009,-0.0008,1000,0.00,0.00
52731,2.00,0.0042,-0.0054,1.0012,0.0017,0.0016,0.0011,1000,0.00,0.00
52782,2.01,0.0007,-0.0015,0.9922,0.0025,-0.0025,-0.0005,1000,0.00,0.00
52833,2.04,0.0039,-0.0061,1.0027,0.0028,0.0007,-0.0033,1000,0.00,0.00
52884,2.06,0.0024,-0.0022,1.0029,0.0037,0.0013,0.0023,1000,0.00,0.00
52934,2.07,-0.0012,-0.0093,0.9956,0.0040,0.0019,0.0028,1000,0.00,0.00
52985,2.07,0.0027,-0.0061,1.0032,0.0033,0.0001,0.0004,1000,0.00,0.00
53036,2.09,-0.0015,-0.0117,0.9998,0.0013,-0.0003,-0.0012,1000,0.00,0.00
53087,2.11,0.0000,-0.0032,0.9971,0.0007,-0.0021,0.0003,1000,0.00,0.00
53137,2.11,-0.0044,-0.0007,1.0002,0.0035,0.0008,-0.0013,1000,0.00,0.00
53188,2.10,0.0034,-0.0066,0.9939,0.0005,-0.0016,0.0017,1000,0.00,0.00
53239,2.09,0.0063,0.0007,1.0093,0.0024,-0.0003,0.0020,1000,0.00,0.00
53290,2.11,0.0090,-0.0110,0.9993,0.0015,0.0009,0.0003,1000,0.00,0.00
53340,2.11,-0.0002,-0.0039,0.9932,0.0012,-0.0001,0.0020,1000,0.00,0.00
53391,2.12,0.0032,-0.0034,1.0046,0.0029,0.0009,0.0023,1000,0.00,0.00
53442,2.12,-0.0005,-0.0066,0.9954,-0.0001,-0.0005,0.0021,1000,0.00,0.00
53493,2.13,-0.0022,-0.0037,0.9983,0.0041,0.0019,0.0001,1000,0.00,0.00
53544,2.15,0.0002,-0.0076,0.9966,0.0008,0.0004,0.0017,1000,0.00,0.00
53596,2.14,0.0020,-0.0076,1.0044,0.0032,0.0012,0.0001,1000,0.00,0.00
53647,2.14,0.0005,0.0020,0.9968,0.0020,-0.0004,-0.0019,1000,0.00,0.00
53697,2.14,-0.0015,-0.0066,0.9988,0.0029,0.0000,-0.0012,1000,0.00,0.00
53748,2.16,0.0039,-0.0061,0.9941,0.0007,0.0009,0.0008,1000,0.00,0.00
53799,2.16,0.0042,-0.0049,0.9954,0.0015,0.0003,0.0020,1000,0.00,0.00
53850,2.17,0.0020,-0.0039,1.0071,0.0016,0.0011,0.0009,1000,0.00,0.00
53900,2.17,0.0046,-0.0039,0.9983,0.0039,-0.0008,0.0019,1000,0.00,0.00
53951,2.20,-0.0002,-0.0063,0.9966,0.0063,0.0019,0.0004,1000,0.00,0.00
54002,2.23,0.0022,-0.0054,1.0024,0.0009,0.0017,0.0004,1000,0.00,0.00
54053,2.25,-0.0046,-0.0071,1.0059,0.0039,0.0003,0.0013,1000,0.00,0.00
54103,2.26,0.0037,-0.0017,0.9978,0.0019,0.0007,0.0004,1000,0.00,0.00
54154,2.28,-0.0042,-0.0032,0.9971,-0.0019,0.0033,0.0021,1000,0.00,0.00
54205,2.30,0.0000,-0.0120,1.0022,0.0021,-0.0009,0.0004,1000,0.00,0.00
54256,2.30,0.0024,-0.0085,0.9985,0.0021,-0.0011,0.0017,1000,0.00,0.00
54306,2.30,0.0032,-0.0056,0.9995,0.0008,-0.0009,0.0012,1000,0.00,0.00
54357,2.30,0.0071,-0.0098,0.9976,0.0020,-0.0019,-0.0003,1000,0.00,0.00
54408,2.30,-0.0015,-0.0068,0.9939,0.0023,-0.0001,-0.0017,1000,0.00,0.00
54459,2.31,-0.0039,-0.0042,0.9998,0.0017,-0.0015,0.0025,1000,0.00,0.00
54509,2.30,0.0007,-0.0073,0.9897,0.0023,0.0027,0.0000,1000,0.00,0.00
54561,2.30,-0.0066,-0.0032,0.9927,0.0005,-0.0003,0.0003,1000,0.00,0.00
54612,2.29,0.0017,-0.0071,0.9910,0.0023,-0.0013,-0.0009,1000,0.00,0.00
54663,2.31,-0.0037,-0.0039,0.9922,0.0035,0.0005,0.0001,1000,0.00,0.00
54714,2.30,-0.0022,-0.0039,0.9980,0.0017,-0.0020,-0.0004,1000,0.00,0.00
54765,2.30,0.0000,-0.0068,1.0054,0.0015,0.0020,0.0021,1000,0.00,0.00
54815,2.29,0.0017,-0.0037,1.0007,0.0007,-0.0003,0.0008,1000,0.00,0.00
54866,2.30,0.0005,-0.0017,0.9983,0.0005,0.0003,0.0009,1000,0.00,0.00
54917,2.30,0.0007,-0.0098,0.9983,-0.0003,0.0009,0.0017,1000,0.00,0.00
54968,2.28,0.0027,0.0002,1.0005,0.0015,0.0012,-0.0004,1000,0.00,0.00
55018,2.27,-0.0039,-0.0044,1.0088,0.0017,0.0011,0.0001,1000,0.00,0.00
55069,2.25,0.0015,-0.0063,0.9983,0.0041,-0.0036,0.0024,1000,0.00,0.00
55120,2.25,-0.0010,-0.0042,0.9976,0.0024,0.0011,-0.0012,1000,0.00,0.00
55171,2.25,0.0037,-0.0005,0.9980,0.0020,0.0004,-0.0004,1000,0.00,0.00
55221,2.25,0.0068,-0.0046,1.0007,-0.0003,0.0000,0.0001,1000,0.00,0.00
55272,2.25,0.0054,-0.0100,0.9897,0.0007,0.0017,0.0012,1000,0.00,0.00
55323,2.24,0.0002,-0.0103,0.9968,0.0020,0.0017,0.0011,1000,0.00,0.00
55374,2.24,0.0012,-0.0024,0.9927,0.0013,-0.0029,0.0008,1000,0.00,0.00
55424,2.23,0.0063,-0.0061,0.9915,0.0021,0.0013,-0.0003,1000,0.00,0.00
55475,2.22,0.0029,-0.0007,0.9929,0.0025,0.0007,0.0015,1000,0.00,0.00
55526,2.22,0.0012,-0.0027,0.9893,0.0020,0.0009,0.0008,1000,0.00,0.00
55578,2.23,0.0068,-0.0017,0.9897,0.0009,-0.0009,0.0000,1000,0.00,0.00
55629,2.21,0.0017,-0.0029,1.0056,0.0008,0.0003,-0.0012,1000,0.00,0.00
55680,2.20,-0.0010,-0.0032,1.0022,0.0007,0.0000,-0.0004,1000,0.00,0.00
55731,2.19,0.0007,-0.0049,1.0029,0.0009,0.0024,-0.0003,1000,0.00,0.00
55781,2.19,0.0049,-0.0054,0.9976,0.0001,0.0001,-0.0004,1000,0.00,0.00
55832,2.20,0.0032,-0.0085,0.9988,0.0017,0.0013,-0.0007,1000,0.00,0.00
55883,2.19,-0.0029,-0.0063,0.9883,0.0011,-0.0029,0.0012,1000,0.00,0.00
55934,2.17,0.0015,-0.0012,0.9983,-0.0008,0.0003,0.0009,1000,0.00,0.00
55984,2.16,-0.0015,-0.0076,1.0005,0.0019,-0.0011,0.0008,1000,0.00,0.00
56035,2.17,-0.0005,0.0005,0.9949,0.0019,-0.0011,0.0001,1000,0.00,0.00
56086,2.16,-0.0020,-0.0022,1.0012,0.0011,0.0027,0.0031,1000,0.00,0.00
56137,2.15,0.0056,-0.0151,0.9939,0.0028,0.0013,0.0020,1000,0.00,0.00
56187,2.14,0.0015,-0.0046,1.0034,0.0013,-0.0005,0.0020,1000,0.00,0.00
56238,2.15,-0.0007,-0.0073,1.0042,0.0035,0.0008,0.0000,1000,0.00,0.00
56289,2.17,0.0024,-0.0051,0.9966,0.0011,0.0021,0.0019,1000,0.00,0.00
56340,2.18,0.0034,-0.0049,0.9983,0.0000,0.0016,-0.0005,1000,0.00,0.00
56390,2.19,0.0000,-0.0073,0.9951,0.0004,-0.0009,0.0016,1000,0.00,0.00
56441,2.20,0.0017,-0.0076,1.0020,0.0021,-0.0017,0.0016,1000,0.00,0.00
56492,2.22,0.0068,-0.0063,1.0002,0.0012,-0.0007,0.0005,1000,0.00,0.00
56543,2.23,0.0054,-0.0059,1.0015,0.0001,0.0027,0.0012,1000,0.00,0.00
56594,2.23,0.0022,-0.0020,1.0037,0.0000,0.0011,0.0012,1000,0.00,0.00
56646,2.24,-0.0042,-0.0137,1.0015,0.0009,-0.0024,-0.0013,1000,0.00,0.00
56696,2.25,0.0027,-0.0085,0.9937,0.0019,0.0000,-0.0017,1000,0.00,0.00
56747,2.27,-0.0015,-0.0095,1.0039,0.0012,0.0012,-0.0016,1000,0.00,0.00
56798,2.28,-0.0010,-0.0085,0.9946,0.0021,0.0011,0.0021,1000,0.00,0.00
56849,2.28,0.0071,0.0000,1.0088,0.0021,0.0015,0.0027,1000,0.00,0.00
56899,2.29,0.0000,-0.0061,0.9917,0.0033,-0.0012,0.0005,1000,0.00,0.00
56950,2.31,-0.0059,-0.0056,0.9978,0.0019,-0.0011,0.0033,1000,0.00,0.00
57001,2.31,-0.0010,-0.0088,1.0020,0.0007,0.0012,-0.0005,1000,0.00,0.00
57052,2.31,-0.0010,-0.0081,0.9980,0.0031,-0.0024,0.0017,1000,0.00,0.00
57102,2.31,-0.0005,0.0007,1.0054,0.0003,0.0000,0.0016,1000,0.00,0.00
57153,2.33,-0.0039,-0.0007,1.0010,0.0032,0.0008,0.0027,1000,0.00,0.00
57204,2.33,0.0017,-0.0095,1.0002,0.0021,0.0003,0.0027,1000,0.00,0.00
57255,2.32,0.0020,-0.0037,0.9966,-0.0012,-0.0004,-0.0009,1000,0.00,0.00
57305,2.31,0.0076,-0.0100,0.9971,0.0009,0.0001,0.0013,1000,0.00,0.00
57356,2.30,0.0042,0.0012,0.9839,0.0036,-0.0007,-0.0005,1000,0.00,0.00
57407,2.32,0.0051,-0.0061,0.9976,0.0001,0.0012,0.0025,1000,0.00,0.00
57458,2.31,0.0022,-0.0110,0.9949,0.0015,0.0013,0.0029,1000,0.00,0.00
57508,2.31,0.0037,-0.0066,0.9993,-0.0003,0.0020,0.0007,1000,0.00,0.00
57559,2.31,-0.0017,-0.0046,1.0044,0.0036,-0.0004,0.0020,1000,0.00,0.00
57611,2.32,0.0012,-0.0117,0.9902,0.0015,0.0004,0.0016,1000,0.00,0.00
57663,2.33,0.0056,-0.0107,0.9949,0.0024,0.0015,0.0033,1000,0.00,0.00
57713,2.32,-0.0051,-0.0105,1.0051,-0.0001,0.0008,-0.0001,1000,0.00,0.00
57764,2.32,0.0017,-0.0002,1.0000,0.0013,-0.0008,0.0025,1000,0.00,0.00
57815,2.32,0.0039,-0.0071,1.0078,0.0021,0.0005,0.0007,1000,0.00,0.00
57866,2.34,-0.0002,-0.0042,1.0034,0.0028,0.0001,0.0001,1000,0.00,0.00
57916,2.34,-0.0044,-0.0054,1.0012,0.0011,0.0016,0.0013,1000,0.00,0.00
57967,2.35,0.0051,-0.0059,1.0042,0.0023,0.0028,0.0037,1000,0.00,0.00
58018,2.36,0.0051,0.0020,1.0039,0.0020,-0.0005,-0.0003,1000,0.00,0.00
58069,2.37,0.0032,-0.0010,1.0054,0.0017,-0.0004,0.0004,1000,0.00,0.00
58119,2.37,0.0029,-0.0110,0.9963,0.0025,0.0013,-0.0005,1000,0.00,0.00
58170,2.37,-0.0022,-0.0088,0.9988,0.0004,-0.0012,-0.0001,1000,0.00,0.00
58221,2.36,0.0015,-0.0056,1.0000,-0.0001,0.0000,0.0003,1000,0.00,0.00
58272,2.37,0.0007,-0.0093,1.0015,0.0016,0.0013,0.0009,1000,0.00,0.00
58322,2.39,0.0017,-0.0022,1.0002,0.0020,-0.0023,-0.0016,1000,0.00,0.00
58373,2.38,0.0046,-0.0068,0.9946,0.0020,0.0000,0.0005,1000,0.00,0.00
58424,2.38,-0.0024,-0.0024,1.0029,0.0027,-0.0021,-0.0012,1000,0.00,0.00
58475,2.37,-0.0022,-0.0002,0.9922,0.0013,0.0013,0.0025,1000,0.00,0.00
58525,2.39,-0.0029,-0.0129,0.9912,-0.0011,0.0000,-0.0004,1000,0.00,0.00
58576,2.40,-0.0010,-0.0005,1.0051,0.0023,0.0009,-0.0015,1000,0.00,0.00
58628,2.40,0.0046,-0.0098,0.9954,0.0004,0.0019,0.0009,1000,0.00,0.00
58680,2.41,0.0046,-0.0032,1.0027,0.0027,0.0013,0.0004,1000,0.00,0.00
58730,2.43,-0.0010,-0.0051,0.9944,-0.0013,-0.0023,0.0007,1000,0.00,0.00
58781,2.46,-0.0029,-0.0032,0.9988,0.0017,-0.0013,0.0019,1000,0.00,0.00
58832,2.46,0.0044,-0.0068,0.9966,0.0004,-0.0005,-0.0008,1000,0.00,0.00
58882,2.46,0.0059,-0.0063,0.9973,-0.0013,0.0012,-0.0001,1000,0.00,0.00
58933,2.45,0.0029,-0.0005,1.0039,0.0011,-0.0021,-0.0015,1000,0.00,0.00
58984,2.47,-0.0020,-0.0049,1.0020,0.0001,0.0027,0.0015,1000,0.00,0.00
59035,2.46,0.0110,0.0000,1.0081,0.0013,0.0019,-0.0013,1000,0.00,0.00
59085,2.47,0.0027,-0.0054,1.0061,0.0033,0.0008,0.0005,1000,0.00,0.00
59136,2.47,0.0015,-0.0059,0.9973,0.0016,0.0016,0.0004,1000,0.00,0.00
59187,2.47,-0.0054,-0.0073,1.0029,0.0013,-0.0007,0.0015,1000,0.00,0.00
59238,2.47,0.0059,-0.0034,1.0005,0.0008,0.0005,0.0009,1000,0.00,0.00
59288,2.44,-0.0046,-0.0027,0.9949,0.0009,-0.0004,-0.0001,1000,0.00,0.00
59339,2.41,0.0051,-0.0005,1.0063,-0.0016,0.0000,-0.0009,1000,0.00,0.00
59390,2.38,-0.0020,-0.0110,0.9968,-0.0004,-0.0009,0.0013,1000,0.00,0.00
59441,2.36,0.0020,-0.0042,1.0005,0.0031,0.0008,-0.0013,1000,0.00,0.00
59491,2.33,-0.0046,0.0012,1.0020,0.0032,0.0027,0.0036,1000,0.00,0.00
59542,2.29,0.0068,-0.0017,0.9919,0.0011,0.0009,0.0004,1000,0.00,0.00
59593,2.26,-0.0020,-0.0046,1.0012,0.0016,-0.0017,0.0011,1000,0.00,0.00
59645,2.22,0.0002,-0.0024,0.9973,-0.0007,0.0027,-0.0031,1000,0.00,0.00
59696,2.20,0.0029,-0.0061,1.0005,0.0013,0.0004,-0.0033,1000,0.00,0.00
59747,2.16,-0.0083,-0.0132,1.0002,0.0027,0.0027,-0.0013,1000,0.00,0.00
59798,2.11,0.0039,-0.0032,0.9995,0.0029,-0.0004,0.0009,1000,0.00,0.00
59848,2.07,0.0022,-0.0066,0.9980,0.0032,-0.0020,-0.0009,1000,0.00,0.00
59899,2.04,0.0076,-0.0059,0.9897,0.0020,0.0004,0.0003,1000,0.00,0.00
59950,2.01,-0.0015,-0.0012,0.9954,0.0007,0.0007,-0.0011,1000,0.00,0.00
60001,1.96,0.0088,0.0027,1.0020,-0.0019,0.0009,0.0008,1000,0.00,0.00
60051,1.92,0.0134,0.0017,1.0059,-0.0001,0.0007,0.0019,1000,0.00,0.00
60102,1.88,-0.0061,-0.0044,1.0020,0.0007,-0.0005,0.0012,1000,0.00,0.00
60153,1.86,-0.0049,-0.0110,0.9944,0.0032,0.0011,-0.0009,1000,0.00,0.00
60204,1.86,0.0063,-0.0076,0.9961,0.0000,0.0043,0.0001,1000,0.00,0.00
60254,1.86,0.0020,-0.0056,1.0078,-0.0003,-0.0019,0.0017,1000,0.00,0.00
60305,1.83,0.0081,-0.0105,1.0027,0.0059,0.0007,0.0039,1000,0.00,0.00
60356,1.81,-0.0005,-0.0007,0.9929,-0.0024,0.0001,0.0012,1000,0.00,0.00
60407,1.78,0.0085,-0.0078,0.9976,0.0039,-0.0001,0.0005,1000,0.00,0.00
60457,1.76,-0.0007,0.0000,0.9971,0.0040,-0.0003,0.0020,1000,0.00,0.00
60508,1.75,-0.0032,-0.0095,1.0098,0.0009,0.0009,-0.0017,1000,0.00,0.00
60559,1.75,0.0046,-0.0088,0.9961,0.0013,0.0032,0.0011,1000,0.00,0.00
60610,1.75,0.0000,0.0015,0.9966,0.0005,0.0003,-0.0009,1000,0.00,0.00
60661,1.75,-0.0002,-0.0078,0.9958,-0.0004,-0.0017,0.0020,1000,0.00,0.00
60713,1.74,-0.0059,-0.0027,0.9980,0.0004,0.0016,0.0003,1000,0.00,0.00
60764,1.74,0.0120,-0.0103,0.9966,0.0003,-0.0001,-0.0015,1000,0.00,0.00
60814,1.76,0.0029,0.0029,1.0059,0.0048,0.0031,-0.0001,1000,0.00,0.00
60865,1.75,0.0029,-0.0146,1.0037,-0.0001,-0.0020,-0.0011,1000,0.00,0.00
60916,1.75,0.0015,-0.0061,0.9949,0.0023,0.0016,-0.0023,1000,0.00,0.00
60967,1.75,0.0039,-0.0100,0.9995,-0.0007,0.0033,0.0001,1000,0.00,0.00
61017,1.76,0.0007,-0.0042,1.0073,0.0016,-0.0007,0.0023,1000,0.00,0.00
61068,1.77,-0.0012,-0.0022,0.9958,0.0028,-0.0001,0.0025,1000,0.00,0.00
61119,1.79,0.0000,0.0032,0.9939,-0.0009,0.0027,0.0009,1000,0.00,0.00
61170,1.80,-0.0012,-0.0049,0.9985,0.0048,-0.0015,0.0033,1000,0.00,0.00
61220,1.81,0.0002,-0.0120,1.0039,0.0004,-0.0008,-0.0008,1000,0.00,0.00
61271,1.84,0.0020,-0.0059,1.0007,0.0008,-0.0020,-0.0004,1000,0.00,0.00
61322,1.86,0.0020,-0.0027,0.9932,0.0021,0.0007,-0.0005,1000,0.00,0.00
61373,1.87,0.0027,-0.0042,1.0098,0.0023,-0.0011,-0.0001,1000,0.00,0.00
61423,1.88,0.0002,-0.0044,1.0042,0.0016,-0.0016,0.0008,1000,0.00,0.00
61474,1.90,0.0017,-0.0032,1.0002,0.0023,0.0015,0.0016,1000,0.00,0.00
61525,1.91,0.0000,-0.0024,1.0000,0.0024,0.0005,0.0011,1000,0.00,0.00
61576,1.91,0.0046,-0.0034,0.9978,0.0019,-0.0008,-0.0016,1000,0.00,0.00
61626,1.91,0.0029,-0.0054,0.9956,0.0005,-0.0003,0.0023,1000,0.00,0.00
61678,1.90,0.0000,-0.0032,0.9963,0.0013,0.0003,0.0012,1000,0.00,0.00
61730,1.90,0.0007,0.0024,0.9998,0.0013,-0.0005,-0.0009,1000,0.00,0.00
61780,1.89,-0.0027,-0.0012,1.0081,0.0037,-0.0011,0.0008,1000,0.00,0.00
61831,1.88,0.0012,-0.0046,1.0020,0.0012,-0.0008,0.0023,1000,0.00,0.00
61882,1.86,-0.0020,-0.0056,1.0044,0.0023,-0.0032,-0.0028,1000,0.00,0.00
61933,1.86,0.0022,-0.0010,0.9990,0.0012,0.0003,-0.0013,1000,0.00,0.00
61983,1.86,0.0002,-0.0085,0.9910,0.0005,0.0005,-0.0001,1000,0.00,0.00
62034,1.85,-0.0022,-0.0090,0.9966,0.0029,0.0005,-0.0005,1000,0.00,0.00
62085,1.84,0.0017,-0.0112,0.9915,0.0015,0.0000,-0.0011,1000,0.00,0.00
62136,1.84,0.0007,-0.0105,1.0068,0.0045,0.0017,0.0035,1000,0.00,0.00
62186,1.84,0.0029,0.0049,0.9963,0.0012,-0.0001,0.0019,1000,0.00,0.00
62237,1.84,0.0022,-0.0100,1.0007,0.0021,0.0012,0.0015,1000,0.00,0.00
62288,1.83,0.0037,-0.0015,1.0059,0.0023,0.0027,0.0000,1000,0.00,0.00
62339,1.83,-0.0029,-0.0049,0.9956,0.0023,-0.0024,-0.0005,1000,0.00,0.00
62389,1.84,0.0063,-0.0059,1.0039,0.0008,0.0015,0.0016,1000,0.00,0.00
62440,1.85,0.0000,-0.0007,0.9929,0.0017,-0.0017,0.0008,1000,0.00,0.00
62491,1.84,0.0015,-0.0085,0.9971,0.0035,0.0005,0.0008,1000,0.00,0.00
62542,1.83,0.0017,-0.0015,1.0093,0.0013,0.0013,0.0015,1000,0.00,0.00
62592,1.83,0.0000,-0.0103,0.9995,0.0015,0.0008,-0.0001,1000,0.00,0.00
62643,1.83,-0.0034,-0.0032,1.0034,0.0019,-0.0017,0.0003,1000,0.00,0.00
62695,1.82,0.0042,-0.0024,1.0027,0.0023,0.0004,0.0021,1000,0.00,0.00
62746,1.82,0.0063,-0.0061,1.0032,-0.0009,-0.0012,-0.0009,1000,0.00,0.00
62797,1.81,0.0022,-0.0027,0.9973,0.0001,0.0009,0.0028,1000,0.00,0.00
62848,1.82,0.0044,-0.0017,1.0027,0.0024,0.0013,0.0011,1000,0.00,0.00
62899,1.82,-0.0007,-0.0015,1.0054,0.0017,0.0001,0.0017,1000,0.00,0.00
62949,1.82,-0.0005,-0.0073,0.9963,0.0017,-0.0001,0.0013,1000,0.00,0.00
63000,1.81,0.0027,-0.0027,1.0056,0.0019,-0.0003,-0.0019,1000,0.00,0.00
63051,1.80,-0.0005,-0.0078,1.0046,0.0017,0.0012,0.0021,1000,0.00,0.00
63102,1.82,-0.0027,-0.0063,0.9983,0.0032,0.0005,0.0023,1000,0.00,0.00
63152,1.81,-0.0024,-0.0027,1.0037,0.0011,-0.0019,0.0019,1000,0.00,0.00
63203,1.81,0.0002,-0.0071,1.0027,0.0007,0.0008,0.0005,1000,0.00,0.00
63254,1.81,0.0007,-0.0042,0.9993,0.0035,-0.0007,-0.0007,1000,0.00,0.00
63305,1.83,0.0029,-0.0068,1.0051,0.0015,-0.0023,0.0020,1000,0.00,0.00
63355,1.84,-0.0024,-0.0107,1.0000,0.0007,0.0013,0.0004,1000,0.00,0.00
63406,1.84,0.0037,-0.0054,0.9939,0.0007,0.0000,-0.0020,1000,0.00,0.00
63457,1.85,0.0046,-0.0029,1.0046,0.0020,-0.0013,-0.0011,1000,0.00,0.00
63508,1.85,-0.0022,-0.0007,1.0034,0.0001,-0.0003,-0.0003,1000,0.00,0.00
63558,1.87,-0.0022,0.0005,1.0005,0.0020,0.0013,-0.0017,1000,0.00,0.00
63609,1.87,0.0002,-0.0068,1.0000,0.0011,-0.0035,0.0004,1000,0.00,0.00
63660,1.88,0.0049,0.0000,1.0044,0.0023,-0.0005,0.0009,1000,0.00,0.00
63711,1.87,0.0024,-0.0071,0.9980,0.0032,-0.0003,-0.0003,1000,0.00,0.00
63763,1.87,0.0002,-0.0051,1.0010,-0.0011,0.0001,-0.0003,1000,0.00,0.00
63814,1.88,-0.0024,-0.0027,0.9985,0.0020,-0.0009,0.0004,1000,0.00,0.00
63865,1.89,0.0005,-0.0061,1.0073,0.0017,0.0000,0.0015,1000,0.00,0.00
63915,1.89,0.0017,-0.0061,1.0012,0.0027,0.0001,-0.0012,1000,0.00,0.00
63966,1.90,0.0015,-0.0059,0.9966,-0.0007,0.0011,0.0013,1000,0.00,0.00
64017,1.92,0.0039,-0.0029,0.9980,0.0015,-0.0004,0.0027,1000,0.00,0.00
64068,1.92,0.0032,-0.0078,0.9968,0.0025,0.0029,-0.0023,1000,0.00,0.00
64118,1.92,0.0017,-0.0037,1.0022,0.0009,0.0019,0.0003,1000,0.00,0.00
64169,1.91,0.0095,-0.0083,1.0037,-0.0020,0.0001,0.0028,1000,0.00,0.00
64220,1.91,-0.0010,-0.0007,0.9985,0.0003,-0.0016,0.0017,1000,0.00,0.00
64271,1.92,-0.0044,-0.0066,0.9968,0.0028,-0.0009,0.0009,1000,0.00,0.00
64321,1.91,0.0051,-0.0042,0.9929,0.0037,-0.0028,0.0007,1000,0.00,0.00
64372,1.90,0.0083,-0.0059,0.9932,0.0017,-0.0012,0.0005,1000,0.00,0.00
64423,1.89,0.0063,-0.0093,1.0032,0.0005,0.0008,-0.0013,1000,0.00,0.00
64473,1.90,0.0005,-0.0073,1.0017,0.0004,0.0019,0.0016,1000,0.00,0.00
64524,1.91,-0.0017,-0.0093,1.0034,0.0019,-0.0008,-0.0004,1000,0.00,0.00
64575,1.92,0.0107,-0.0066,1.0000,0.0020,0.0021,-0.0004,1000,0.00,0.00
64626,1.93,-0.0002,-0.0015,0.9971,0.0013,0.0011,-0.0005,1000,0.00,0.00
64676,1.93,-0.0005,-0.0061,0.9980,0.0020,-0.0020,0.0001,1000,0.00,0.00
64728,1.94,0.0000,-0.0007,1.0005,0.0029,-0.0017,-0.0016,1000,0.00,0.00
64780,1.93,0.0039,-0.0046,0.9934,0.0040,0.0009,-0.0027,1000,0.00,0.00
64830,1.92,0.0024,-0.0081,0.9998,0.0027,-0.0017,-0.0008,1000,0.00,0.00
64881,1.91,0.0032,-0.0017,0.9993,-0.0007,0.0003,0.0017,1000,0.00,0.00
64932,1.93,0.0010,-0.0085,1.0024,0.0032,0.0019,0.0013,1000,0.00,0.00
64983,1.93,-0.0020,-0.0056,0.9937,-0.0008,0.0007,0.0017,1000,0.00,0.00
65033,1.93,0.0022,0.0000,0.9995,0.0031,0.0003,-0.0009,1000,0.00,0.00
65084,1.93,0.0029,-0.0095,1.0105,-0.0005,-0.0004,0.0012,1000,0.00,0.00
65135,1.94,0.0022,-0.0027,1.0083,0.0008,0.0015,0.0005,1000,0.00,0.00
65186,1.94,0.0068,-0.0095,1.0017,0.0004,0.0015,0.0021,1000,0.00,0.00
65236,1.93,0.0015,-0.0061,0.9973,0.0013,0.0000,-0.0025,1000,0.00,0.00
65287,1.92,0.0066,-0.0056,1.0032,0.0005,-0.0019,0.0017,1000,0.00,0.00
65338,1.92,0.0059,-0.0027,0.9980,0.0031,-0.0008,0.0019,1000,0.00,0.00
65389,1.92,0.0007,-0.0088,0.9978,0.0009,0.0000,0.0040,1000,0.00,0.00
65439,1.90,0.0037,-0.0073,1.0037,0.0044,-0.0016,0.0009,1000,0.00,0.00
65490,1.88,0.0032,-0.0063,0.9961,0.0021,0.0005,0.0008,1000,0.00,0.00
65541,1.86,0.0000,-0.0061,0.9949,0.0019,0.0009,0.0041,1000,0.00,0.00
65592,1.86,-0.0085,-0.0042,0.9966,0.0021,0.0015,0.0023,1000,0.00,0.00
65642,1.86,0.0042,-0.0054,1.0007,0.0011,-0.0017,0.0001,1000,0.00,0.00
65693,1.87,0.0007,-0.0002,1.0000,-0.0001,-0.0025,0.0015,1000,0.00,0.00
65745,1.88,0.0007,-0.0029,0.9980,0.0023,0.0024,-0.0007,1000,0.00,0.00
65796,1.88,0.0039,0.0020,0.9980,0.0013,-0.0004,-0.0003,1000,0.00,0.00
65847,1.89,0.0073,-0.0007,1.0039,0.0024,-0.0001,-0.0009,1000,0.00,0.00
65898,1.89,-0.0010,-0.0027,0.9993,0.0027,0.0013,0.0005,1000,0.00,0.00
65949,1.90,0.0059,-0.0073,0.9993,0.0033,-0.0004,0.0005,1000,0.00,0.00
65999,1.90,-0.0022,0.0049,0.9941,0.0027,0.0007,0.0017,1000,0.00,0.00
66050,1.91,-0.0010,-0.0010,1.0039,-0.0001,0.0005,0.0009,1000,0.00,0.00
66101,1.92,0.0039,-0.0039,0.9917,0.0025,0.0000,0.0009,1000,0.00,0.00
66152,1.92,0.0020,-0.0068,0.9998,0.0021,-0.0021,-0.0007,1000,0.00,0.00
66202,1.93,0.0012,-0.0122,0.9954,0.0043,0.0011,-0.0016,1000,0.00,0.00
66253,1.92,-0.0010,-0.0056,0.9900,0.0025,0.0016,-0.0016,1000,0.00,0.00
66304,1.92,-0.0022,0.0005,1.0024,0.0011,-0.0016,0.0035,1000,0.00,0.00
66355,1.91,-0.0063,-0.0063,0.9961,0.0012,-0.0019,0.0019,1000,0.00,0.00
66405,1.90,0.0054,-0.0083,0.9985,0.0029,-0.0003,0.0036,1000,0.00,0.00
66456,1.90,0.0051,-0.0054,0.9990,0.0035,0.0019,-0.0001,1000,0.00,0.00
66507,1.91,0.0017,-0.0049,1.0002,0.0021,0.0007,-0.0023,1000,0.00,0.00
66558,1.89,0.0034,-0.0002,1.0005,0.0015,0.0007,-0.0009,1000,0.00,0.00
66608,1.88,-0.0034,0.0029,1.0044,0.0025,0.0017,0.0005,1000,0.00,0.00
66659,1.87,-0.0012,-0.0103,0.9922,-0.0012,0.0017,-0.0007,1000,0.00,0.00
66710,1.86,0.0015,-0.0042,1.0034,-0.0007,0.0017,-0.0005,1000,0.00,0.00
66762,1.86,-0.0095,-0.0049,1.0081,0.0017,0.0011,0.0021,1000,0.00,0.00
66813,1.85,-0.0010,-0.0044,0.9993,0.0007,0.0021,0.0016,1000,0.00,0.00
66864,1.84,0.0022,-0.0073,0.9939,0.0025,0.0013,-0.0005,1000,0.00,0.00
66915,1.83,0.0024,-0.0007,1.0054,0.0025,-0.0004,-0.0021,1000,0.00,0.00
66965,1.84,0.0042,0.0002,1.0017,0.0005,0.0025,0.0023,1000,0.00,0.00
67016,1.83,-0.0007,-0.0037,0.9966,0.0001,-0.0035,-0.0021,1000,0.00,0.00
67067,1.82,-0.0002,-0.0054,1.0007,0.0016,-0.0004,-0.0015,1000,0.00,0.00
67118,1.82,-0.0005,-0.0015,1.0002,0.0015,0.0023,0.0004,1000,0.00,0.00
67168,1.82,-0.0024,-0.0037,1.0029,0.0023,0.0019,0.0021,1000,0.00,0.00
67219,1.82,-0.0010,-0.0081,0.9983,0.0021,0.0005,0.0019,1000,0.00,0.00
67270,1.82,0.0017,-0.0066,0.9954,0.0024,-0.0008,0.0012,1000,0.00,0.00
67321,1.81,0.0059,-0.0078,0.9919,0.0020,0.0001,-0.0005,1000,0.00,0.00
67371,1.80,-0.0024,0.0029,1.0007,0.0000,-0.0031,0.0005,1000,0.00,0.00
67422,1.80,-0.0034,-0.0042,1.0002,0.0016,0.0008,0.0041,1000,0.00,0.00
67473,1.78,0.0027,0.0037,0.9932,0.0008,0.0032,0.0011,1000,0.00,0.00
67524,1.76,0.0032,-0.0054,0.9983,-0.0016,-0.0015,-0.0015,1000,0.00,0.00
67574,1.75,0.0059,-0.0027,1.0007,-0.0007,0.0025,0.0003,1000,0.00,0.00
67625,1.74,0.0044,-0.0059,1.0059,-0.0005,-0.0021,0.0021,1000,0.00,0.00
67676,1.75,0.0027,-0.0071,0.9985,0.0003,0.0008,0.0016,1000,0.00,0.00
67727,1.76,0.0024,-0.0039,0.9988,0.0032,0.0011,-0.0004,1000,0.00,0.00
67778,1.77,-0.0049,-0.0120,1.0046,-0.0012,-0.0023,0.0015,1000,0.00,0.00
67830,1.77,-0.0032,-0.0090,0.9927,0.0019,-0.0004,0.0007,1000,0.00,0.00
67880,1.78,0.0027,-0.0049,0.9971,0.0021,-0.0015,0.0000,1000,0.00,0.00
67931,1.77,0.0017,-0.0054,0.9963,0.0029,0.0024,-0.0001,1000,0.00,0.00
67982,1.76,0.0071,-0.0024,0.9978,-0.0008,-0.0011,0.0000,1000,0.00,0.00
68033,1.74,-0.0015,-0.0081,0.9990,0.0032,-0.0033,-0.0008,1000,0.00,0.00
68083,1.75,0.0002,-0.0027,1.0032,0.0024,-0.0013,-0.0011,1000,0.00,0.00
68134,1.76,-0.0015,0.0012,1.0005,0.0029,-0.0009,-0.0015,1000,0.00,0.00
68185,1.76,0.0012,-0.0085,0.9932,0.0023,-0.0007,-0.0003,1000,0.00,0.00
68236,1.76,-0.0002,-0.0032,1.0044,0.0027,-0.0012,-0.0016,1000,0.00,0.00
68286,1.77,0.0015,-0.0063,0.9919,0.0017,0.0007,0.0008,1000,0.00,0.00
68337,1.80,0.0015,-0.0022,0.9946,0.0040,0.0003,-0.0004,1000,0.00,0.00
68388,1.79,0.0015,-0.0027,0.9995,0.0012,0.0000,0.0008,1000,0.00,0.00
68439,1.80,0.0027,-0.0042,0.9919,0.0027,0.0001,0.0015,1000,0.00,0.00
68489,1.81,0.0020,-0.0037,1.0044,0.0039,0.0003,0.0016,1000,0.00,0.00
68540,1.82,0.0039,-0.0012,1.0059,0.0001,0.0000,0.0004,1000,0.00,0.00
68591,1.83,0.0012,-0.0027,1.0049,-0.0024,0.0027,0.0017,1000,0.00,0.00
68642,1.83,0.0010,-0.0098,0.9929,0.0029,0.0016,-0.0016,1000,0.00,0.00
68692,1.83,-0.0029,-0.0020,0.9907,0.0013,0.0007,0.0028,1000,0.00,0.00
68743,1.84,0.0024,-0.0071,0.9976,0.0011,-0.0007,0.0007,1000,0.00,0.00
68795,1.85,0.0012,-0.0002,0.9976,0.0037,-0.0001,0.0007,1000,0.00,0.00
68846,1.85,0.0012,0.0000,0.9993,0.0016,0.0003,-0.0012,1000,0.00,0.00
68897,1.85,0.0042,-0.0056,0.9963,0.0031,-0.0017,0.0016,1000,0.00,0.00
68948,1.86,0.0034,0.0024,1.0042,0.0013,-0.0004,0.0000,1000,0.00,0.00
68999,1.86,-0.0051,-0.0088,0.9990,0.0021,0.0017,-0.0017,1000,0.00,0.00
69049,1.86,0.0027,-0.0010,1.0044,-0.0011,0.0005,-0.0009,1000,0.00,0.00
69100,1.85,0.0051,-0.0078,0.9990,0.0008,-0.0007,0.0008,1000,0.00,0.00
69151,1.85,-0.0007,-0.0032,1.0046,0.0000,-0.0019,0.0020,1000,0.00,0.00
69202,1.84,0.0039,-0.0037,1.0005,0.0001,0.0000,-0.0008,1000,0.00,0.00
69252,1.85,-0.0020,-0.0105,0.9985,0.0031,0.0016,-0.0011,1000,0.00,0.00
69303,1.85,0.0015,-0.0063,1.0007,-0.0003,0.0011,-0.0021,1000,0.00,0.00
69354,1.85,0.0002,-0.0022,1.0063,0.0021,0.0023,-0.0003,1000,0.00,0.00
69405,1.85,-0.0005,-0.0044,1.0000,0.0011,0.0047,0.0024,1000,0.00,0.00
69455,1.87,-0.0010,0.0024,0.9929,0.0024,0.0007,-0.0013,1000,0.00,0.00
69506,1.89,-0.0017,-0.0002,1.0122,0.0003,0.0003,-0.0008,1000,0.00,0.00
69557,1.89,0.0010,-0.0054,1.0012,0.0028,0.0000,-0.0001,1000,0.00,0.00
69608,1.89,0.0002,-0.0024,0.9998,0.0013,0.0003,-0.0011,1000,0.00,0.00
69658,1.90,0.0044,-0.0093,0.9968,0.0019,-0.0003,-0.0007,1000,0.00,0.00
69709,1.91,0.0039,-0.0044,1.0007,0.0013,0.0013,0.0043,1000,0.00,0.00
69760,1.92,-0.0037,-0.0042,0.9968,0.0045,0.0016,0.0011,1000,0.00,0.00
69812,1.91,0.0063,-0.0090,0.9956,0.0017,-0.0009,0.0004,1000,0.00,0.00
69864,1.91,0.0039,-0.0037,0.9976,0.0011,-0.0001,-0.0011,1000,0.00,0.00
69914,1.93,0.0029,-0.0054,0.9905,0.0017,0.0020,0.0013,1000,0.00,0.00
69965,1.94,0.0044,-0.0083,0.9951,0.0008,-0.0020,0.0009,1000,0.00,0.00
70016,1.94,0.0027,-0.0076,0.9973,0.0043,0.0024,0.0024,1000,0.00,0.00
70067,1.93,0.0000,-0.0022,0.9937,0.0029,0.0009,0.0016,1000,0.00,0.00
70117,1.92,0.0063,-0.0093,1.0012,0.0009,0.0000,0.0005,1000,0.00,0.00
70168,1.93,0.0081,-0.0110,1.0012,0.0016,-0.0011,0.0009,1000,0.00,0.00
70219,1.93,0.0044,-0.0078,0.9980,0.0017,-0.0005,0.0016,1000,0.00,0.00
70270,1.93,-0.0042,-0.0090,1.0024,0.0028,0.0008,0.0017,1000,0.00,0.00
70320,1.93,0.0042,-0.0056,0.9990,0.0016,-0.0003,0.0031,1000,0.00,0.00
70371,1.94,0.0000,-0.0063,1.0002,0.0039,-0.0008,0.0012,1000,0.00,0.00
70422,1.96,0.0010,0.0007,0.9915,0.0011,0.0000,0.0003,1000,0.00,0.00
70472,1.96,-0.0024,-0.0022,0.9902,-0.0004,0.0000,-0.0008,1000,0.00,0.00
70523,1.96,0.0007,-0.0142,1.0029,0.0009,0.0007,0.0005,1000,0.00,0.00
70574,1.96,0.0059,-0.0051,1.0073,0.0027,0.0032,0.0008,1000,0.00,0.00
70625,1.96,0.0012,-0.0100,0.9978,0.0004,0.0033,0.0007,1000,0.00,0.00
70675,1.96,0.0042,-0.0056,1.0034,0.0025,0.0001,-0.0016,1000,0.00,0.00
70726,1.95,0.0032,-0.0027,0.9946,0.0031,0.0003,0.0005,1000,0.00,0.00
70777,1.94,0.0012,-0.0059,0.9939,0.0035,0.0003,-0.0003,1000,0.00,0.00
70829,1.94,0.0024,-0.0037,0.9954,-0.0009,-0.0012,-0.0004,1000,0.00,0.00
70880,1.94,0.0037,-0.0085,0.9976,0.0023,-0.0024,-0.0039,1000,0.00,0.00
70931,1.93,0.0022,0.0020,0.9973,0.0011,0.0000,0.0008,1000,0.00,0.00
70982,1.93,0.0044,-0.0034,1.0017,0.0021,0.0000,0.0017,1000,0.00,0.00
71033,1.92,0.0034,-0.0017,0.9956,0.0000,-0.0020,0.0031,1000,0.00,0.00
71083,1.93,0.0010,-0.0098,0.9985,0.0020,-0.0001,-0.0003,1000,0.00,0.00
71134,1.92,0.0010,-0.0012,0.9966,-0.0017,0.0007,0.0013,1000,0.00,0.00
71185,1.91,-0.0005,-0.0056,1.0042,0.0013,-0.0019,0.0025,1000,0.00,0.00
71236,1.90,0.0000,-0.0037,0.9971,0.0011,-0.0005,0.0012,1000,0.00,0.00
71287,1.91,0.0049,-0.0134,0.9937,0.0028,0.0005,0.0007,1000,0.00,0.00
71338,1.92,0.0024,-0.0037,0.9980,-0.0011,-0.0005,0.0035,1000,0.00,0.00
71389,1.93,0.0061,-0.0007,0.9990,0.0009,0.0023,-0.0008,1000,0.00,0.00
71439,1.94,0.0000,-0.0046,0.9963,0.0013,-0.0001,0.0032,1000,0.00,0.00
71490,1.93,-0.0029,-0.0059,0.9973,0.0013,0.0009,0.0011,1000,0.00,0.00
71541,1.94,-0.0005,0.0010,1.0049,-0.0016,0.0004,0.0005,1000,0.00,0.00
71592,1.93,-0.0027,-0.0049,0.9946,0.0017,0.0012,0.0016,1000,0.00,0.00
71642,1.93,0.0059,-0.0010,1.0056,0.0032,-0.0008,-0.0003,1000,0.00,0.00
71693,1.91,0.0063,-0.0100,0.9941,-0.0003,-0.0001,0.0004,1000,0.00,0.00
71744,1.90,0.0039,-0.0027,0.9983,0.0028,0.0028,0.0021,1000,0.00,0.00
71795,1.88,0.0037,-0.0078,0.9966,-0.0012,-0.0027,-0.0009,1000,0.00,0.00
71847,1.85,-0.0039,-0.0039,0.9910,0.0023,0.0003,-0.0011,1000,0.00,0.00
71898,1.82,0.0020,-0.0049,0.9900,-0.0011,-0.0013,0.0015,1000,0.00,0.00
71949,1.81,-0.0049,-0.0063,0.9963,0.0000,-0.0029,-0.0011,1000,0.00,0.00
72000,1.82,0.0032,-0.0090,1.0000,0.0045,-0.0020,0.0031,1000,0.00,0.00
72050,1.80,0.0020,-0.0037,0.9951,0.0011,0.0011,0.0023,1000,0.00,0.00
72101,1.78,-0.0010,-0.0115,0.9941,-0.0001,-0.0019,0.0017,1000,0.00,0.00
72152,1.75,0.0046,-0.0068,0.9941,0.0036,-0.0004,0.0007,1000,0.00,0.00
72203,1.75,0.0022,-0.0002,0.9985,0.0035,-0.0021,0.0008,1000,0.00,0.00
72253,1.76,0.0005,-0.0024,1.0049,0.0024,0.0015,0.0000,1000,0.00,0.00
72304,1.76,0.0024,-0.0039,1.0027,0.0016,0.0004,-0.0008,1000,0.00,0.00
72355,1.77,-0.0034,-0.0037,0.9917,0.0020,-0.0007,0.0025,1000,0.00,0.00
72406,1.76,0.0024,-0.0042,0.9978,0.0007,0.0020,0.0000,1000,0.00,0.00
72456,1.77,0.0034,-0.0022,1.0037,0.0047,0.0015,0.0013,1000,0.00,0.00
72507,1.76,0.0012,-0.0088,1.0054,0.0025,0.0012,0.0020,1000,0.00,0.00
72558,1.75,0.0000,-0.0051,0.9905,0.0036,-0.0004,-0.0001,1000,0.00,0.00
72609,1.73,0.0056,-0.0024,1.0066,0.0035,0.0000,0.0020,1000,0.00,0.00
72659,1.73,0.0024,-0.0022,0.9941,0.0004,0.0036,0.0004,1000,0.00,0.00
72710,1.72,0.0085,-0.0051,0.9971,0.0047,0.0024,-0.0001,1000,0.00,0.00
72761,1.71,0.0039,-0.0081,0.9980,0.0016,-0.0008,-0.0001,1000,0.00,0.00
72812,1.70,0.0037,-0.0022,1.0017,0.0009,0.0013,-0.0003,1000,0.00,0.00
72863,1.68,0.0066,-0.0051,0.9963,0.0015,-0.0008,0.0008,1000,0.00,0.00
72915,1.67,0.0032,-0.0098,0.9883,0.0012,0.0020,0.0004,1000,0.00,0.00
72966,1.66,0.0024,-0.0061,0.9985,0.0024,-0.0023,-0.0008,1000,0.00,0.00
73016,1.65,0.0051,-0.0002,1.0034,-0.0008,0.0004,0.0003,1000,0.00,0.00
73067,1.64,0.0042,-0.0049,0.9990,0.0019,0.0016,0.0011,1000,0.00,0.00
73119,1.64,0.0037,-0.0029,1.0037,0.0017,0.0008,0.0015,1000,0.00,0.00
73170,1.62,0.0010,-0.0027,1.0039,-0.0001,0.0012,0.0004,1000,0.00,0.00
73221,1.61,-0.0012,-0.0046,0.9995,0.0015,0.0004,0.0013,1000,0.00,0.00
73271,1.60,-0.0024,0.0007,1.0005,0.0005,0.0016,-0.0007,1000,0.00,0.00
73322,1.61,-0.0007,-0.0039,0.9988,-0.0017,0.0008,-0.0019,1000,0.00,0.00
73373,1.62,0.0044,0.0000,1.0010,0.0021,0.0013,0.0008,1000,0.00,0.00
73423,1.63,0.0042,-0.0061,0.9980,0.0013,0.0011,-0.0007,1000,0.00,0.00
73474,1.63,0.0032,-0.0039,1.0046,0.0016,0.0000,0.0011,1000,0.00,0.00
73525,1.62,0.0012,-0.0103,1.0039,0.0013,-0.0005,-0.0025,1000,0.00,0.00
73576,1.63,0.0115,-0.0093,1.0007,0.0027,-0.0020,0.0008,1000,0.00,0.00
73626,1.62,0.0007,-0.0034,1.0020,0.0011,0.0017,-0.0015,1000,0.00,0.00
73677,1.61,-0.0012,-0.0081,1.0046,-0.0004,-0.0011,0.0007,1000,0.00,0.00
73728,1.61,-0.0056,-0.0022,0.9873,0.0023,0.0017,-0.0019,1000,0.00,0.00
73779,1.61,0.0032,-0.0071,0.9941,0.0019,-0.0007,0.0001,1000,0.00,0.00
73829,1.62,0.0042,-0.0044,0.9995,-0.0003,-0.0024,-0.0015,1000,0.00,0.00
73881,1.63,0.0037,-0.0042,1.0039,0.0044,0.0009,-0.0005,1000,0.00,0.00
73933,1.63,0.0039,-0.0071,0.9963,0.0008,0.0007,0.0023,1000,0.00,0.00
73984,1.64,0.0012,-0.0029,0.9890,0.0015,0.0000,0.0004,1000,0.00,0.00
74034,1.64,0.0024,-0.0093,0.9993,0.0000,0.0001,0.0008,1000,0.00,0.00
74085,1.64,-0.0020,-0.0083,0.9917,-0.0011,-0.0005,-0.0012,1000,0.00,0.00
74136,1.64,-0.0049,-0.0015,1.0061,0.0009,-0.0004,0.0024,1000,0.00,0.00
74187,1.63,0.0017,-0.0032,0.9990,0.0017,0.0009,0.0003,1000,0.00,0.00
74237,1.64,-0.0007,0.0000,1.0032,0.0023,0.0015,0.0003,1000,0.00,0.00
74288,1.66,0.0049,-0.0093,1.0002,0.0025,0.0012,0.0012,1000,0.00,0.00
74339,1.67,0.0063,-0.0117,1.0005,0.0017,0.0029,-0.0037,1000,0.00,0.00
74390,1.68,-0.0046,-0.0073,1.0024,0.0011,0.0024,0.0011,1000,0.00,0.00
74440,1.68,-0.0005,-0.0090,1.0022,-0.0007,0.0011,0.0008,1000,0.00,0.00
74491,1.69,-0.0039,-0.0005,0.9937,0.0012,0.0008,-0.0012,1000,0.00,0.00
74542,1.68,0.0029,-0.0034,1.0005,0.0021,0.0007,-0.0015,1000,0.00,0.00
74593,1.68,0.0066,-0.0054,1.0005,0.0019,-0.0021,0.0011,1000,0.00,0.00
74643,1.68,0.0037,0.0010,1.0022,0.0027,0.0007,0.0021,1000,0.00,0.00
74694,1.66,0.0024,-0.0103,0.9941,0.0015,0.0013,0.0004,1000,0.00,0.00
74745,1.66,0.0015,-0.0017,0.9980,-0.0008,-0.0008,-0.0008,1000,0.00,0.00
74796,1.66,0.0012,-0.0046,0.9985,0.0020,0.0027,-0.0013,1000,0.00,0.00
74846,1.65,0.0027,-0.0027,0.9946,0.0023,0.0007,0.0011,1000,0.00,0.00
74898,1.64,-0.0017,-0.0046,0.9976,0.0019,0.0019,0.0033,1000,0.00,0.00
74950,1.65,0.0042,-0.0134,1.0012,0.0037,0.0017,-0.0001,1000,0.00,0.00
75000,1.65,-0.0022,-0.0054,0.9985,0.0021,0.0013,0.0015,1000,0.00,0.00
75051,1.63,0.0056,-0.0066,0.9954,0.0031,0.0000,0.0007,1000,0.00,0.00
75102,1.61,0.0039,-0.0090,1.0144,0.0041,0.0007,0.0015,1000,0.00,0.00
75153,1.60,-0.0015,-0.0054,0.9976,0.0021,0.0019,-0.0004,1000,0.00,0.00
75203,1.61,-0.0012,-0.0029,1.0024,0.0028,-0.0024,0.0016,1000,0.00,0.00
75254,1.61,0.0051,-0.0029,0.9924,0.0029,0.0005,0.0013,1000,0.00,0.00
75305,1.61,-0.0007,-0.0088,1.0022,0.0020,-0.0008,-0.0011,1000,0.00,0.00
75356,1.61,0.0027,-0.0042,0.9946,0.0016,0.0019,0.0001,1000,0.00,0.00
75406,1.62,0.0002,-0.0132,0.9932,0.0024,0.0015,0.0012,1000,0.00,0.00
75457,1.62,0.0039,-0.0017,0.9924,0.0003,0.0011,-0.0011,1000,0.00,0.00
75508,1.63,0.0083,-0.0012,1.0005,0.0021,-0.0008,-0.0012,1000,0.00,0.00
75559,1.63,0.0007,-0.0076,0.9893,0.0021,0.0000,-0.0024,1000,0.00,0.00
75609,1.63,-0.0017,-0.0024,0.9968,0.0021,0.0012,0.0049,1000,0.00,0.00
75660,1.64,0.0098,-0.0110,1.0042,0.0023,-0.0027,-0.0013,1000,0.00,0.00
75711,1.65,-0.0022,-0.0129,0.9971,0.0033,0.0024,0.0039,1000,0.00,0.00
75762,1.66,0.0027,-0.0054,0.9878,0.0024,-0.0024,-0.0009,1000,0.00,0.00
75812,1.66,0.0042,-0.0081,1.0002,-0.0009,-0.0016,0.0032,1000,0.00,0.00
75863,1.67,-0.0005,-0.0054,1.0012,0.0000,-0.0003,-0.0011,1000,0.00,0.00
75916,1.67,0.0037,-0.0042,0.9958,0.0009,0.0012,0.0008,1000,0.00,0.00
75968,1.65,0.0002,-0.0071,0.9971,0.0028,-0.0028,0.0016,1000,0.00,0.00
76018,1.64,0.0046,-0.0054,0.9922,0.0027,-0.0011,0.0025,1000,0.00,0.00
76069,1.64,-0.0054,-0.0078,0.9998,0.0025,-0.0004,0.0015,1000,0.00,0.00
76120,1.66,0.0005,-0.0076,1.0029,0.0008,0.0005,0.0023,1000,0.00,0.00
76171,1.67,0.0051,-0.0120,0.9966,0.0035,-0.0005,-0.0011,1000,0.00,0.00
76221,1.68,0.0066,-0.0002,1.0122,-0.0004,-0.0021,0.0004,1000,0.00,0.00
76272,1.68,0.0027,0.0002,0.9939,0.0029,-0.0001,-0.0003,1000,0.00,0.00
76323,1.70,0.0002,0.0037,1.0056,0.0024,0.0048,-0.0003,1000,0.00,0.00
76374,1.71,-0.0017,-0.0117,1.0051,0.0029,0.0003,-0.0027,1000,0.00,0.00
76424,1.70,0.0017,0.0002,0.9966,0.0036,-0.0024,0.0000,1000,0.00,0.00
76475,1.70,0.0029,0.0000,1.0032,0.0017,-0.0012,-0.0011,1000,0.00,0.00
76526,1.70,0.0022,-0.0073,0.9932,0.0013,0.0009,-0.0003,1000,0.00,0.00
76577,1.72,0.0032,-0.0068,1.0056,-0.0008,0.0015,0.0012,1000,0.00,0.00
76627,1.72,0.0085,-0.0115,1.0002,0.0016,0.0033,0.0008,1000,0.00,0.00
76678,1.72,0.0010,-0.0042,0.9946,-0.0001,0.0044,0.0060,1000,0.00,0.00
76729,1.71,0.0034,0.0042,1.0032,0.0037,0.0015,-0.0032,1000,0.00,0.00
76780,1.71,0.0029,-0.0049,0.9961,0.0009,0.0035,-0.0007,1000,0.00,0.00
76830,1.71,0.0042,-0.0032,0.9932,0.0029,0.0007,-0.0025,1000,0.00,0.00
76881,1.70,0.0088,-0.0015,0.9958,0.0029,-0.0017,-0.0032,1000,0.00,0.00
76933,1.70,0.0066,-0.0088,0.9917,0.0023,0.0003,-0.0012,1000,0.00,0.00
76984,1.70,-0.0029,-0.0010,0.9932,0.0013,0.0007,-0.0003,1000,0.00,0.00
77035,1.71,0.0042,-0.0090,0.9917,0.0003,0.0016,0.0023,1000,0.00,0.00
77086,1.71,0.0044,-0.0054,0.9978,0.0017,0.0001,-0.0011,1000,0.00,0.00
77137,1.71,0.0110,-0.0063,1.0027,0.0011,-0.0007,0.0001,1000,0.00,0.00
77187,1.71,0.0037,-0.0034,0.9951,-0.0001,0.0016,0.0012,1000,0.00,0.00
77238,1.71,0.0066,-0.0017,0.9998,0.0017,-0.0024,-0.0044,1000,0.00,0.00
77289,1.70,-0.0015,-0.0042,0.9893,0.0016,0.0012,0.0027,1000,0.00,0.00
77340,1.71,0.0029,0.0000,0.9910,0.0027,0.0015,-0.0021,1000,0.00,0.00
77390,1.72,0.0093,-0.0022,1.0061,0.0023,-0.0007,0.0013,1000,0.00,0.00
77441,1.73,-0.0020,-0.0078,0.9968,-0.0013,-0.0004,-0.0019,1000,0.00,0.00
77492,1.75,-0.0029,-0.0002,1.0027,0.0007,0.0011,0.0016,1000,0.00,0.00
77543,1.75,0.0034,-0.0022,0.9983,0.0003,0.0012,0.0004,1000,0.00,0.00
77593,1.75,-0.0012,-0.0032,0.9978,0.0020,-0.0009,-0.0011,1000,0.00,0.00
77644,1.74,0.0017,-0.0029,1.0007,0.0023,0.0017,0.0003,1000,0.00,0.00
77695,1.75,-0.0017,-0.0095,0.9980,-0.0008,0.0016,0.0032,1000,0.00,0.00
77746,1.74,-0.0034,0.0024,1.0015,0.0029,0.0004,-0.0001,1000,0.00,0.00
77796,1.73,-0.0020,-0.0071,1.0027,0.0013,-0.0007,-0.0036,1000,0.00,0.00
77847,1.72,0.0022,-0.0010,0.9990,0.0011,0.0023,0.0008,1000,0.00,0.00
77898,1.73,0.0056,-0.0042,0.9988,0.0008,0.0008,0.0005,1000,0.00,0.00
77949,1.74,0.0002,-0.0027,1.0039,0.0040,-0.0001,0.0009,1000,0.00,0.00
78001,1.74,0.0061,-0.0066,0.9922,0.0017,0.0004,-0.0008,1000,0.00,0.00
78052,1.73,0.0017,-0.0100,0.9990,0.0007,0.0009,-0.0005,1000,0.00,0.00
78102,1.72,-0.0024,-0.0029,0.9990,0.0015,-0.0007,0.0020,1000,0.00,0.00
78153,1.73,0.0076,-0.0044,0.9949,-0.0001,0.0023,0.0009,1000,0.00,0.00
78204,1.71,-0.0044,-0.0100,0.9941,0.0029,0.0025,-0.0007,1000,0.00,0.00
78255,1.70,0.0020,-0.0056,1.0054,0.0031,-0.0009,0.0008,1000,0.00,0.00
78305,1.70,-0.0044,-0.0059,0.9980,0.0040,0.0016,0.0000,1000,0.00,0.00
78356,1.69,0.0054,-0.0100,0.9956,0.0021,0.0027,0.0036,1000,0.00,0.00
78407,1.71,0.0007,-0.0034,1.0027,0.0033,0.0001,0.0003,1000,0.00,0.00
78458,1.71,0.0007,-0.0093,0.9971,0.0039,0.0013,-0.0001,1000,0.00,0.00
78508,1.71,0.0056,-0.0110,0.9963,0.0044,-0.0003,-0.0015,1000,0.00,0.00
78559,1.72,0.0002,-0.0051,1.0051,0.0019,0.0013,0.0028,1000,0.00,0.00
78610,1.73,-0.0005,-0.0078,0.9939,0.0023,-0.0003,0.0000,1000,0.00,0.00
78661,1.74,-0.0002,-0.0054,0.9968,0.0040,0.0003,0.0025,1000,0.00,0.00
78711,1.74,0.0007,-0.0063,1.0017,0.0043,0.0000,-0.0004,1000,0.00,0.00
78762,1.73,-0.0029,-0.0059,0.9944,0.0012,0.0001,0.0025,1000,0.00,0.00
78813,1.75,0.0068,-0.0054,1.0059,0.0012,0.0020,-0.0007,1000,0.00,0.00
78864,1.75,0.0076,0.0000,0.9941,-0.0011,-0.0040,0.0024,1000,0.00,0.00
78914,1.75,0.0042,0.0015,0.9988,0.0028,-0.0025,0.0028,1000,0.00,0.00
78966,1.74,0.0068,0.0002,0.9937,0.0028,0.0011,-0.0012,1000,0.00,0.00
79018,1.74,0.0039,0.0007,0.9971,-0.0003,0.0007,0.0017,1000,0.00,0.00
79068,1.77,0.0012,-0.0076,0.9949,0.0011,0.0001,0.0000,1000,0.00,0.00
79119,1.76,0.0039,-0.0015,0.9980,0.0020,0.0011,0.0009,1000,0.00,0.00
79170,1.75,0.0020,-0.0090,1.0037,0.0021,-0.0011,0.0020,1000,0.00,0.00
79221,1.75,0.0022,-0.0054,1.0015,0.0011,0.0008,-0.0019,1000,0.00,0.00
79271,1.75,0.0017,-0.0095,1.0051,0.0021,0.0011,0.0003,1000,0.00,0.00
79322,1.76,0.0061,-0.0066,1.0017,0.0020,-0.0004,-0.0023,1000,0.00,0.00
79373,1.75,0.0020,-0.0056,0.9946,0.0023,0.0012,0.0037,1000,0.00,0.00
79424,1.74,0.0032,-0.0078,0.9939,-0.0001,0.0001,0.0015,1000,0.00,0.00
79474,1.73,0.0010,-0.0061,0.9956,0.0027,0.0004,0.0019,1000,0.00,0.00
79525,1.74,0.0020,-0.0044,0.9868,-0.0011,0.0007,0.0011,1000,0.00,0.00
79576,1.74,-0.0005,-0.0076,0.9990,0.0021,0.0008,0.0029,1000,0.00,0.00
79627,1.75,0.0022,-0.0071,1.0056,-0.0016,-0.0001,0.0021,1000,0.00,0.00
79677,1.76,0.0105,-0.0051,1.0024,0.0003,0.0024,0.0024,1000,0.00,0.00
79728,1.76,0.0042,-0.0073,0.9976,0.0028,-0.0005,-0.0031,1000,0.00,0.00
79779,1.77,0.0010,-0.0063,0.9893,-0.0003,-0.0020,0.0013,1000,0.00,0.00
79830,1.78,-0.0032,-0.0063,1.0083,0.0008,-0.0009,-0.0001,1000,0.00,0.00
79880,1.78,0.0066,-0.0056,0.9937,0.0019,-0.0007,0.0013,1000,0.00,0.00
79931,1.79,0.0034,-0.0112,0.9973,0.0020,-0.0003,0.0013,1000,0.00,0.00
79983,1.80,0.0068,-0.0068,1.0037,0.0019,0.0008,-0.0023,1000,0.00,0.00
80034,1.80,-0.0022,0.0000,1.0044,0.0031,-0.0021,-0.0007,1000,0.00,0.00
80085,1.80,-0.0007,-0.0044,1.0010,0.0024,0.0003,0.0007,1000,0.00,0.00
80136,1.80,0.0051,-0.0017,0.9993,0.0025,0.0015,0.0009,1000,0.00,0.00
80187,1.81,-0.0007,-0.0046,1.0078,0.0003,-0.0005,0.0013,1000,0.00,0.00
80237,1.81,-0.0020,-0.0088,0.9907,0.0012,0.0019,0.0017,1000,0.00,0.00
80288,1.79,0.0005,-0.0049,0.9990,0.0008,-0.0005,0.0033,1000,0.00,0.00
80339,1.78,0.0005,-0.0049,0.9956,0.0000,0.0007,0.0004,1000,0.00,0.00
80390,1.78,0.0037,-0.0073,0.9973,0.0015,0.0021,-0.0004,1000,0.00,0.00
80440,1.79,0.0078,-0.0090,0.9880,0.0023,0.0008,0.0008,1000,0.00,0.00
80491,1.80,-0.0029,-0.0095,0.9985,0.0035,0.0009,0.0004,1000,0.00,0.00
80542,1.80,0.0056,-0.0039,0.9883,-0.0001,0.0027,0.0025,1000,0.00,0.00
80593,1.80,0.0083,-0.0085,1.0010,0.0016,0.0007,0.0011,1000,0.00,0.00
80643,1.82,-0.0007,-0.0046,1.0056,0.0013,-0.0005,0.0003,1000,0.00,0.00
80694,1.83,0.0029,-0.0071,1.0000,-0.0007,0.0000,0.0003,1000,0.00,0.00
80745,1.83,0.0027,-0.0066,1.0088,0.0027,0.0025,-0.0016,1000,0.00,0.00
80796,1.83,0.0081,-0.0039,0.9888,0.0023,0.0024,0.0004,1000,0.00,0.00
80846,1.84,0.0059,-0.0110,0.9995,0.0011,-0.0003,0.0011,1000,0.00,0.00
80897,1.85,-0.0024,-0.0032,0.9998,0.0025,0.0011,0.0004,1000,0.00,0.00
80948,1.85,-0.0015,-0.0122,0.9932,0.0028,0.0015,-0.0003,1000,0.00,0.00
81000,1.86,0.0034,-0.0081,1.0037,0.0009,0.0009,-0.0001,1000,0.00,0.00
81051,1.86,-0.0022,-0.0068,1.0083,0.0027,-0.0013,-0.0016,1000,0.00,0.00
81102,1.88,0.0017,-0.0083,1.0039,0.0024,0.0007,0.0011,1000,0.00,0.00
81153,1.88,0.0007,-0.0039,0.9941,0.0012,0.0003,0.0025,1000,0.00,0.00
81204,1.88,0.0005,-0.0088,0.9883,0.0041,0.0001,-0.0003,1000,0.00,0.00
81254,1.87,-0.0007,-0.0093,1.0032,0.0004,0.0013,0.0004,1000,0.00,0.00
81305,1.86,0.0054,-0.0063,1.0000,0.0028,-0.0015,-0.0020,1000,0.00,0.00
81356,1.86,0.0000,-0.0015,0.9985,0.0008,-0.0009,0.0003,1000,0.00,0.00
81407,1.86,0.0044,-0.0024,1.0034,-0.0001,-0.0008,-0.0004,1000,0.00,0.00
81457,1.85,0.0051,-0.0068,0.9968,0.0016,-0.0005,0.0027,1000,0.00,0.00
81508,1.85,0.0020,-0.0024,0.9915,0.0012,-0.0019,0.0016,1000,0.00,0.00
81559,1.87,0.0081,-0.0034,1.0005,0.0004,0.0008,0.0025,1000,0.00,0.00
81610,1.87,0.0034,-0.0081,1.0051,0.0025,-0.0008,0.0016,1000,0.00,0.00
81660,1.86,-0.0066,-0.0095,0.9919,0.0023,0.0004,0.0003,1000,0.00,0.00
81711,1.85,0.0002,-0.0029,0.9946,0.0025,0.0013,-0.0001,1000,0.00,0.00
81762,1.86,0.0034,-0.0051,0.9924,0.0029,-0.0004,0.0005,1000,0.00,0.00
81813,1.86,-0.0024,-0.0046,1.0002,0.0025,-0.0013,0.0000,1000,0.00,0.00
81863,1.86,-0.0029,-0.0002,0.9971,0.0020,0.0000,0.0009,1000,0.00,0.00
81914,1.85,0.0110,-0.0029,1.0034,0.0009,0.0003,-0.0055,1000,0.00,0.00
81965,1.85,0.0110,-0.0049,1.0071,0.0000,-0.0004,0.0036,1000,0.00,0.00
82017,1.85,-0.0034,-0.0034,0.9971,0.0035,0.0027,-0.0048,1000,0.00,0.00
82068,1.84,-0.0022,-0.0027,0.9985,0.0056,0.0011,-0.0009,1000,0.00,0.00
82119,1.84,-0.0032,-0.0046,0.9946,0.0021,0.0001,-0.0012,1000,0.00,0.00
82170,1.83,0.0012,-0.0120,1.0059,-0.0007,0.0004,0.0012,1000,0.00,0.00
82221,1.83,0.0037,0.0000,1.0066,0.0015,-0.0012,-0.0016,1000,0.00,0.00
82271,1.82,0.0054,-0.0046,0.9956,0.0001,-0.0021,0.0008,1000,0.00,0.00
82322,1.82,0.0034,-0.0083,1.0015,0.0017,-0.0032,0.0033,1000,0.00,0.00
82373,1.81,0.0063,-0.0005,1.0024,0.0005,-0.0013,-0.0003,1000,0.00,0.00
82424,1.81,-0.0012,-0.0081,1.0022,0.0000,-0.0013,0.0019,1000,0.00,0.00
82474,1.81,0.0068,-0.0022,0.9998,0.0027,-0.0004,-0.0008,1000,0.00,0.00
82525,1.82,0.0076,-0.0088,1.0044,0.0001,0.0008,-0.0020,1000,0.00,0.00
82576,1.82,0.0000,0.0032,1.0049,-0.0011,0.0012,0.0009,1000,0.00,0.00
82627,1.82,-0.0017,-0.0088,0.9875,0.0027,-0.0001,-0.0019,1000,0.00,0.00
82677,1.81,0.0034,-0.0027,1.0012,0.0024,0.0005,-0.0004,1000,0.00,0.00
82728,1.82,-0.0029,-0.0068,1.0024,0.0025,0.0023,-0.0008,1000,0.00,0.00
82779,1.83,0.0034,-0.0090,0.9993,0.0009,-0.0013,0.0009,1000,0.00,0.00
82830,1.83,0.0049,-0.0020,0.9980,0.0035,0.0031,-0.0025,1000,0.00,0.00
82880,1.84,-0.0015,-0.0054,0.9983,0.0017,0.0023,-0.0011,1000,0.00,0.00
82931,1.86,-0.0002,-0.0032,0.9983,0.0008,0.0005,-0.0039,1000,0.00,0.00
82982,1.86,0.0068,-0.0093,0.9976,0.0016,0.0003,0.0009,1000,0.00,0.00
83034,1.86,-0.0017,-0.0044,0.9954,0.0025,0.0004,0.0008,1000,0.00,0.00
83085,1.85,0.0042,-0.0022,0.9993,0.0013,-0.0008,-0.0012,1000,0.00,0.00
83136,1.85,0.0000,-0.0081,0.9937,0.0029,0.0003,0.0005,1000,0.00,0.00
83187,1.87,-0.0059,-0.0044,0.9980,0.0017,-0.0005,0.0024,1000,0.00,0.00
83237,1.87,0.0002,-0.0054,0.9963,0.0040,-0.0019,-0.0008,1000,0.00,0.00
83288,1.87,0.0054,-0.0073,0.9958,0.0033,0.0028,0.0023,1000,0.00,0.00
83339,1.88,-0.0010,-0.0032,0.9988,0.0020,-0.0012,-0.0013,1000,0.00,0.00
83390,1.88,-0.0042,-0.0017,0.9980,0.0040,0.0028,0.0016,1000,0.00,0.00
83440,1.87,0.0046,-0.0034,1.0039,0.0024,0.0025,-0.0023,1000,0.00,0.00
83491,1.87,-0.0010,-0.0010,1.0061,0.0040,0.0021,0.0015,1000,0.00,0.00
83542,1.86,-0.0010,-0.0076,0.9958,0.0003,0.0001,0.0007,1000,0.00,0.00
83593,1.85,0.0007,-0.0061,1.0002,0.0013,0.0005,-0.0021,1000,0.00,0.00
83643,1.85,0.0020,-0.0066,1.0044,0.0015,0.0011,0.0035,1000,0.00,0.00
83694,1.85,-0.0007,-0.0093,0.9944,0.0021,-0.0015,0.0001,1000,0.00,0.00
83745,1.84,0.0007,-0.0020,0.9995,0.0039,0.0004,0.0019,1000,0.00,0.00
83796,1.84,-0.0005,-0.0063,0.9971,-0.0008,-0.0007,-0.0008,1000,0.00,0.00
83846,1.85,0.0024,-0.0032,0.9993,0.0012,-0.0024,0.0024,1000,0.00,0.00
83897,1.84,-0.0022,-0.0005,0.9946,0.0024,0.0027,-0.0015,1000,0.00,0.00
83948,1.83,0.0007,-0.0085,0.9883,0.0017,0.0004,0.0008,1000,0.00,0.00
83999,1.83,0.0015,-0.0027,1.0024,0.0028,0.0007,0.0013,1000,0.00,0.00
84050,1.82,0.0002,-0.0024,1.0017,0.0013,0.0031,0.0013,1000,0.00,0.00
84102,1.83,0.0020,-0.0046,1.0015,0.0017,-0.0013,-0.0009,1000,0.00,0.00
84153,1.82,0.0083,-0.0076,0.9966,0.0031,-0.0007,0.0011,1000,0.00,0.00
84203,1.82,0.0002,-0.0012,1.0020,0.0020,0.0007,0.0001,1000,0.00,0.00
84254,1.82,0.0017,-0.0059,1.0059,0.0031,0.0028,0.0013,1000,0.00,0.00
84305,1.83,0.0046,0.0054,1.0061,0.0019,0.0007,-0.0019,1000,0.00,0.00
84356,1.83,-0.0032,-0.0027,0.9983,0.0001,0.0001,0.0003,1000,0.00,0.00
84406,1.82,-0.0022,-0.0042,0.9998,0.0005,0.0024,-0.0005,1000,0.00,0.00
84457,1.81,-0.0024,-0.0061,1.0066,0.0019,0.0013,0.0000,1000,0.00,0.00
84508,1.80,0.0005,0.0010,0.9973,0.0012,-0.0023,0.0000,1000,0.00,0.00
84559,1.79,0.0054,-0.0129,1.0049,0.0016,0.0015,0.0000,1000,0.00,0.00
84609,1.78,0.0078,-0.0059,1.0044,0.0032,0.0021,0.0021,1000,0.00,0.00
84660,1.78,0.0100,-0.0044,0.9973,0.0004,-0.0028,0.0004,1000,0.00,0.00
84711,1.77,0.0044,-0.0046,1.0000,0.0020,0.0007,-0.0001,1000,0.00,0.00
84762,1.77,0.0024,-0.0068,1.0049,0.0048,-0.0013,0.0016,1000,0.00,0.00
84812,1.76,0.0046,-0.0110,0.9995,0.0005,0.0016,0.0015,1000,0.00,0.00
84863,1.75,-0.0034,-0.0063,1.0024,0.0017,0.0001,0.0017,1000,0.00,0.00
84914,1.74,0.0066,-0.0005,0.9927,0.0021,-0.0004,-0.0004,1000,0.00,0.00
84965,1.74,0.0066,-0.0071,0.9924,-0.0009,-0.0005,-0.0020,1000,0.00,0.00
85015,1.76,0.0044,-0.0042,1.0017,0.0015,0.0009,-0.0021,1000,0.00,0.00
85067,1.77,0.0005,-0.0020,1.0012,0.0017,0.0013,0.0015,1000,0.00,0.00
85119,1.77,-0.0020,-0.0044,0.9941,0.0043,0.0037,0.0036,1000,0.00,0.00
85170,1.77,0.0020,-0.0093,1.0029,0.0000,0.0024,-0.0016,1000,0.00,0.00
85220,1.78,0.0015,-0.0061,1.0059,0.0017,0.0004,0.0011,1000,0.00,0.00
85271,1.77,0.0005,-0.0027,0.9958,0.0060,-0.0023,0.0032,1000,0.00,0.00
85322,1.78,-0.0029,-0.0049,1.0007,0.0020,0.0011,0.0012,1000,0.00,0.00
85373,1.79,0.0015,-0.0061,1.0063,0.0044,0.0003,0.0005,1000,0.00,0.00
85423,1.79,-0.0061,-0.0122,0.9978,-0.0005,-0.0019,0.0015,1000,0.00,0.00
85474,1.80,0.0022,-0.0039,1.0056,0.0021,0.0013,0.0003,1000,0.00,0.00
85525,1.79,-0.0005,-0.0103,0.9954,-0.0003,0.0003,0.0012,1000,0.00,0.00
85576,1.78,0.0078,-0.0093,0.9966,0.0024,0.0017,0.0013,1000,0.00,0.00
85626,1.77,0.0010,-0.0076,0.9976,-0.0003,-0.0001,0.0000,1000,0.00,0.00
85677,1.77,0.0042,-0.0032,1.0007,0.0013,0.0021,0.0003,1000,0.00,0.00
85728,1.76,-0.0037,-0.0022,0.9990,0.0003,-0.0020,0.0020,1000,0.00,0.00
85779,1.74,-0.0010,-0.0090,0.9988,0.0009,-0.0003,0.0003,1000,0.00,0.00
85829,1.73,0.0000,-0.0125,1.0054,0.0056,-0.0004,-0.0020,1000,0.00,0.00
85880,1.74,0.0039,-0.0005,1.0015,0.0023,0.0011,-0.0001,1000,0.00,0.00
85931,1.77,0.0002,-0.0029,0.9985,0.0036,0.0015,-0.0007,1000,0.00,0.00
85982,1.77,0.0061,-0.0022,1.0017,0.0009,0.0032,0.0013,1000,0.00,0.00
86032,1.77,0.0024,-0.0068,0.9998,0.0031,0.0017,0.0015,1000,0.00,0.00
86084,1.77,0.0015,-0.0054,1.0076,0.0015,0.0007,0.0025,1000,0.00,0.00
86136,1.77,-0.0007,-0.0063,0.9946,0.0015,0.0005,0.0011,1000,0.00,0.00
86186,1.75,0.0078,0.0002,0.9978,0.0040,-0.0016,0.0012,1000,0.00,0.00
86237,1.74,0.0044,-0.0049,0.9998,0.0011,0.0008,0.0001,1000,0.00,0.00
86288,1.74,0.0020,-0.0034,1.0066,0.0035,-0.0009,0.0009,1000,0.00,0.00
86339,1.74,0.0037,-0.0027,1.0059,0.0025,0.0005,-0.0013,1000,0.00,0.00
86389,1.76,0.0039,-0.0034,1.0005,0.0055,-0.0021,0.0000,1000,0.00,0.00
86440,1.76,0.0029,-0.0112,0.9934,-0.0020,-0.0029,0.0015,1000,0.00,0.00
86491,1.77,-0.0027,-0.0063,0.9954,-0.0005,-0.0001,-0.0008,1000,0.00,0.00
86542,1.76,0.0007,-0.0012,0.9971,0.0011,0.0015,0.0007,1000,0.00,0.00
86592,1.77,0.0073,-0.0034,1.0022,0.0021,0.0003,0.0024,1000,0.00,0.00
86643,1.75,0.0022,-0.0034,1.0044,0.0025,0.0003,0.0000,1000,0.00,0.00
86694,1.75,0.0059,-0.0056,0.9958,0.0013,-0.0004,-0.0004,1000,0.00,0.00
86745,1.74,0.0032,-0.0022,1.0024,0.0041,0.0005,0.0007,1000,0.00,0.00
86795,1.75,-0.0022,-0.0083,0.9946,0.0017,-0.0007,0.0000,1000,0.00,0.00
86846,1.75,0.0046,-0.0125,1.0054,0.0012,-0.0001,-0.0003,1000,0.00,0.00
86897,1.74,0.0039,-0.0051,1.0056,0.0009,0.0012,-0.0005,1000,0.00,0.00
86948,1.72,0.0037,-0.0046,0.9963,0.0011,0.0007,-0.0005,1000,0.00,0.00
86998,1.71,0.0029,-0.0022,0.9958,0.0028,-0.0020,0.0003,1000,0.00,0.00
87049,1.72,0.0017,-0.0051,1.0017,0.0031,0.0011,-0.0005,1000,0.00,0.00
87101,1.72,-0.0012,-0.0042,0.9944,0.0009,0.0033,0.0017,1000,0.00,0.00
87152,1.71,0.0007,-0.0051,0.9951,0.0025,0.0008,0.0028,1000,0.00,0.00
87203,1.70,0.0005,-0.0100,1.0029,0.0003,0.0011,0.0003,1000,0.00,0.00
87254,1.71,-0.0063,-0.0078,1.0044,0.0009,0.0001,0.0020,1000,0.00,0.00
87305,1.72,0.0056,-0.0103,0.9973,0.0031,-0.0009,0.0003,1000,0.00,0.00
87355,1.72,0.0027,-0.0054,1.0039,0.0024,-0.0035,0.0009,1000,0.00,0.00
87407,1.71,-0.0005,-0.0022,1.0032,0.0025,-0.0007,-0.0013,1000,0.00,0.00
87458,1.72,0.0012,-0.0081,0.9983,0.0003,0.0013,0.0001,1000,0.00,0.00
87509,1.72,0.0046,-0.0032,0.9983,0.0044,0.0019,0.0009,1000,0.00,0.00
87559,1.72,-0.0012,-0.0002,0.9968,0.0008,0.0000,0.0028,1000,0.00,0.00
87610,1.71,0.0007,-0.0002,0.9946,0.0020,-0.0001,0.0009,1000,0.00,0.00
87661,1.70,0.0007,-0.0017,0.9922,0.0048,0.0000,-0.0016,1000,0.00,0.00
87712,1.70,0.0022,-0.0068,0.9910,0.0028,-0.0001,0.0009,1000,0.00,0.00
87762,1.70,0.0027,-0.0076,1.0002,0.0033,-0.0003,0.0000,1000,0.00,0.00
87813,1.70,0.0007,-0.0098,0.9941,0.0036,0.0003,0.0004,1000,0.00,0.00
87864,1.70,-0.0049,-0.0017,1.0022,0.0005,-0.0005,0.0021,1000,0.00,0.00
87915,1.69,0.0054,-0.0044,1.0012,0.0023,0.0000,0.0008,1000,0.00,0.00
87965,1.70,0.0044,-0.0032,1.0005,0.0004,0.0017,0.0028,1000,0.00,0.00
88016,1.71,0.0032,-0.0090,0.9971,0.0009,-0.0004,-0.0016,1000,0.00,0.00
88067,1.72,0.0034,-0.0049,0.9929,0.0008,0.0011,0.0037,1000,0.00,0.00
88119,1.72,-0.0007,-0.0037,0.9900,0.0013,-0.0040,0.0024,1000,0.00,0.00
88170,1.73,-0.0022,-0.0037,0.9980,0.0012,0.0029,-0.0007,1000,0.00,0.00
88221,1.72,0.0049,-0.0098,0.9990,0.0004,0.0019,0.0003,1000,0.00,0.00
88272,1.70,0.0012,-0.0046,0.9951,0.0005,0.0003,-0.0015,1000,0.00,0.00
88323,1.68,0.0037,-0.0015,0.9976,0.0037,-0.0011,0.0016,1000,0.00,0.00
88373,1.66,0.0020,-0.0027,0.9998,0.0007,-0.0029,-0.0009,1000,0.00,0.00
88424,1.68,0.0017,-0.0066,1.0027,0.0027,0.0009,0.0016,1000,0.00,0.00
88475,1.67,0.0007,-0.0015,1.0007,0.0001,0.0017,0.0009,1000,0.00,0.00
88526,1.67,0.0012,-0.0037,0.9932,0.0005,0.0009,0.0004,1000,0.00,0.00
88576,1.67,0.0034,-0.0068,1.0002,0.0024,0.0011,-0.0015,1000,0.00,0.00
88627,1.67,0.0015,-0.0051,0.9980,0.0000,0.0020,0.0013,1000,0.00,0.00
88678,1.68,0.0024,-0.0054,1.0078,0.0015,0.0023,-0.0020,1000,0.00,0.00
88729,1.67,0.0024,-0.0034,1.0059,0.0052,0.0000,0.0027,1000,0.00,0.00
88779,1.66,0.0027,-0.0061,1.0024,0.0016,-0.0011,-0.0004,1000,0.00,0.00
88830,1.65,0.0051,-0.0027,0.9961,0.0033,0.0015,0.0012,1000,0.00,0.00
88881,1.66,-0.0017,-0.0098,1.0044,0.0035,0.0009,-0.0019,1000,0.00,0.00
88932,1.65,0.0032,-0.0129,0.9963,0.0016,-0.0008,-0.0007,1000,0.00,0.00
88982,1.65,0.0010,-0.0039,0.9968,0.0011,0.0005,-0.0019,1000,0.00,0.00
89033,1.65,0.0027,-0.0071,1.0007,0.0003,-0.0015,0.0017,1000,0.00,0.00
89084,1.67,0.0032,-0.0024,1.0051,0.0015,0.0011,0.0016,1000,0.00,0.00
89136,1.69,0.0020,-0.0042,0.9907,0.0024,-0.0003,0.0019,1000,0.00,0.00
89187,1.68,0.0046,-0.0032,0.9929,0.0053,-0.0007,0.0025,1000,0.00,0.00
89238,1.67,0.0000,-0.0115,1.0022,0.0028,0.0008,0.0008,1000,0.00,0.00
89289,1.66,0.0066,-0.0037,0.9917,0.0049,-0.0016,0.0023,1000,0.00,0.00
89339,1.67,-0.0027,-0.0056,1.0078,0.0009,0.0031,-0.0019,1000,0.00,0.00
89390,1.66,0.0017,-0.0032,0.9927,0.0035,0.0013,0.0004,1000,0.00,0.00
89441,1.66,0.0012,-0.0034,0.9919,-0.0020,0.0017,0.0004,1000,0.00,0.00
89492,1.67,0.0002,-0.0015,0.9954,0.0039,0.0004,0.0013,1000,0.00,0.00
89542,1.68,0.0029,-0.0066,0.9995,0.0023,0.0007,-0.0009,1000,0.00,0.00
89593,1.69,-0.0002,0.0015,0.9932,0.0019,0.0000,0.0031,1000,0.00,0.00
89644,1.67,0.0054,-0.0054,0.9890,0.0025,-0.0004,0.0009,1000,0.00,0.00
89695,1.66,0.0039,-0.0066,1.0039,0.0028,0.0016,-0.0016,1000,0.00,0.00
89745,1.65,0.0020,-0.0039,1.0012,0.0045,0.0031,-0.0008,1000,0.00,0.00
89796,1.64,0.0012,-0.0085,1.0000,0.0036,0.0003,-0.0029,1000,0.00,0.00
89847,1.63,0.0012,-0.0093,0.9971,-0.0003,0.0036,0.0017,1000,0.00,0.00
89898,1.61,0.0037,-0.0037,0.9968,0.0029,0.0000,-0.0007,1000,0.00,0.00
89948,1.60,-0.0022,-0.0081,0.9998,0.0036,0.0029,0.0017,1000,0.00,0.00
89999,1.61,0.0044,-0.0042,0.9954,0.0004,0.0021,0.0011,1000,0.00,0.00
90050,1.62,0.0002,-0.0056,0.9927,-0.0001,-0.0019,0.0009,1000,0.00,0.00
90101,1.61,0.0049,-0.0093,0.9966,0.0037,-0.0009,-0.0007,1000,0.00,0.00
90152,1.61,0.0054,-0.0042,1.0015,0.0005,0.0001,0.0013,1000,0.00,0.00
90204,1.60,0.0017,-0.0029,1.0037,-0.0009,-0.0008,-0.0011,1000,0.00,0.00
90255,1.62,0.0015,-0.0054,1.0022,0.0008,0.0009,-0.0004,1000,0.00,0.00
90305,1.61,0.0022,-0.0073,0.9988,-0.0032,0.0004,-0.0004,1000,0.00,0.00
90356,1.60,0.0010,-0.0066,1.0066,0.0023,0.0015,-0.0009,1000,0.00,0.00
90407,1.60,0.0007,-0.0100,0.9998,0.0008,-0.0004,0.0025,1000,0.00,0.00
90458,1.61,0.0032,-0.0051,1.0032,0.0005,0.0008,0.0009,1000,0.00,0.00
90508,1.62,0.0002,-0.0061,0.9993,0.0015,-0.0004,0.0008,1000,0.00,0.00
90559,1.62,0.0027,-0.0037,0.9949,0.0019,0.0005,0.0009,1000,0.00,0.00
90610,1.61,0.0044,-0.0042,0.9963,0.0021,0.0023,-0.0001,1000,0.00,0.00
90661,1.61,0.0012,-0.0059,0.9954,0.0020,-0.0015,0.0016,1000,0.00,0.00
90711,1.62,0.0029,-0.0085,1.0044,0.0020,-0.0011,0.0009,1000,0.00,0.00
90762,1.61,0.0085,-0.0044,0.9976,0.0027,-0.0033,0.0029,1000,0.00,0.00
90813,1.60,0.0012,-0.0049,1.0012,0.0019,0.0004,0.0012,1000,0.00,0.00
90864,1.60,0.0078,-0.0020,0.9897,0.0040,0.0013,0.0033,1000,0.00,0.00
90914,1.62,0.0012,-0.0020,1.0034,-0.0007,-0.0012,0.0016,1000,0.00,0.00
90965,1.62,0.0017,-0.0095,0.9949,0.0008,0.0009,-0.0004,1000,0.00,0.00
91016,1.60,0.0000,-0.0034,0.9966,0.0023,-0.0007,-0.0007,1000,0.00,0.00
91067,1.59,0.0046,-0.0059,1.0029,-0.0003,-0.0007,-0.0019,1000,0.00,0.00
91117,1.57,-0.0010,-0.0061,0.9917,-0.0012,-0.0012,0.0029,1000,0.00,0.00
91169,1.58,-0.0010,-0.0007,0.9976,0.0043,-0.0004,0.0024,1000,0.00,0.00
91221,1.57,0.0071,-0.0063,0.9980,-0.0003,0.0007,0.0004,1000,0.00,0.00
91271,1.56,0.0000,-0.0049,0.9912,0.0007,0.0000,-0.0017,1000,0.00,0.00
91322,1.54,0.0024,-0.0085,1.0022,0.0027,0.0016,-0.0016,1000,0.00,0.00
91373,1.54,0.0029,-0.0039,1.0039,0.0040,0.0057,0.0012,1000,0.00,0.00
91424,1.54,-0.0015,-0.0046,0.9988,0.0008,0.0024,0.0001,1000,0.00,0.00
91474,1.52,0.0085,-0.0137,1.0051,0.0032,-0.0009,-0.0011,1000,0.00,0.00
91525,1.51,-0.0007,-0.0056,0.9897,0.0013,0.0028,-0.0008,1000,0.00,0.00
91576,1.50,0.0000,-0.0012,0.9968,0.0027,0.0031,0.0005,1000,0.00,0.00
91627,1.51,-0.0010,0.0000,0.9976,-0.0007,-0.0005,-0.0005,1000,0.00,0.00
